[FileHeader]
Idn=THEX 1.0 for LINUX
Insert=A
Cell=C
p_Cell=300mB(RT)          
p_Heater=2E-2 mB (4K)       
T_Slope=0.000000
H_Field=0.000000
K0=6.048000
CalFile=NULL
SampleSensor=GaAs9356
HeaterSensor=9243
L0=1.740000
SampleID=YbGaGe E. Bauer AgSt=1.57mm erste Messung
;
StartTime=Wed May 26 18:22:53 2004
EndTime=Thu May 27 01:54:24 2004
NoofCols=5
DataPoints=470
ColID1=T [K]
ColID2=C [pF]
ColID3=Usens [V]
ColID4=t [s]
ColID5=Date [s]
#XMeas: CreationTime=Thu May 27 01:54:24 2004
@EOH
      4.6183       6.3767046       5.11284       1.1160000  1085588783
      4.8220       6.3766937       5.06992       206.27600  1085588989
      5.0244       6.3766842       5.02771       264.01600  1085589046
      5.2250       6.3766750       4.98647       321.69600  1085589104
      5.4291       6.3766659       4.94529       379.37600  1085589162
      5.6317       6.3766578       4.90534       435.93600  1085589218
      5.8333       6.3766510       4.86650       491.23700  1085589274
      6.0369       6.3766435       4.82809       547.82600  1085589330
      6.2389       6.3766367       4.79062       601.97700  1085589384
      6.4426       6.3766316       4.75332       657.84600  1085589440
      6.6463       6.3766261       4.71640       713.09600  1085589495
      6.8496       6.3766195       4.67988       768.39700  1085589551
      7.0532       6.3766145       4.64364       823.82700  1085589606
      7.2556       6.3766145       4.60798       879.13800  1085589661
      7.4579       6.3766045       4.57272       934.44600  1085589717
      7.6599       6.3766005       4.53789       989.75600  1085589772
      7.8612       6.3766005       4.50358       1044.9960  1085589827
      8.0630       6.3765928       4.46954       1100.2970  1085589883
      8.2641       6.3765893       4.43596       1155.6060  1085589938
      8.4645       6.3765859       4.40280       1210.9070  1085589993
      8.6686       6.3765834       4.36933       1267.4670  1085590050
      8.8717       6.3765815       4.33631       1324.0260  1085590106
      9.0739       6.3765783       4.30372       1380.5770  1085590163
      9.2753       6.3765760       4.27153       1437.1360  1085590219
      9.4795       6.3765748       4.23915       1494.8770  1085590277
      9.6826       6.3765718       4.20720       1552.5670  1085590335
      9.8850       6.3765711       4.17562       1610.2460  1085590393
      10.089       6.3765701       4.14410       1669.1070  1085590451
      10.291       6.3765677       4.11296       1726.7870  1085590509
      10.492       6.3765675       4.08231       1784.4760  1085590567
      10.696       6.3765670       4.05143       1843.3370  1085590626
      10.899       6.3765664       4.02086       1902.1460  1085590684
      11.102       6.3765676       3.99056       1961.0160  1085590743
      11.305       6.3765691       3.96044       2019.8860  1085590802
      11.508       6.3765689       3.93063       2078.7560  1085590861
      11.710       6.3765697       3.90107       2137.6970  1085590920
      11.912       6.3765705       3.87168       2196.6160  1085590979
      12.113       6.3765743       3.84263       2255.4860  1085591038
      12.317       6.3765754       3.81345       2314.4160  1085591097
      12.519       6.3765764       3.78464       2373.2860  1085591156
      12.721       6.3765786       3.75606       2432.1470  1085591214
      12.922       6.3765804       3.72769       2491.0160  1085591273
      13.124       6.3765816       3.69942       2549.8970  1085591332
      13.326       6.3765832       3.67134       2608.8160  1085591391
      13.528       6.3765859       3.64346       2667.6860  1085591450
      13.730       6.3765879       3.61572       2726.5670  1085591509
      13.932       6.3765905       3.58811       2785.4260  1085591568
      14.135       6.3765939       3.56067       2844.3560  1085591627
      14.337       6.3765970       3.53339       2903.2260  1085591686
      14.539       6.3766008       3.50627       2962.0870  1085591744
      14.741       6.3766042       3.47931       3020.9770  1085591803
      14.944       6.3766076       3.45242       3079.8870  1085591862
      15.146       6.3766121       3.42575       3138.7570  1085591921
      15.349       6.3766164       3.39921       3197.6260  1085591980
      15.551       6.3766206       3.37286       3256.4960  1085592039
      15.755       6.3766259       3.34645       3315.3660  1085592098
      15.956       6.3766318       3.32065       3373.0460  1085592155
      16.159       6.3766377       3.29465       3431.9160  1085592214
      16.362       6.3766425       3.26889       3490.7860  1085592273
      16.564       6.3766482       3.24331       3549.6470  1085592332
      16.766       6.3766541       3.21792       3608.5170  1085592391
      16.969       6.3766606       3.19265       3667.3860  1085592450
      17.171       6.3766668       3.16753       3726.2560  1085592509
      17.373       6.3766736       3.14258       3785.1260  1085592567
      17.576       6.3766805       3.11777       3843.9960  1085592626
      17.778       6.3766883       3.09311       3902.8670  1085592685
      17.981       6.3766953       3.06866       3961.7270  1085592744
      18.183       6.3767013       3.04438       4020.5960  1085592803
      18.385       6.3767071       3.02026       4079.4060  1085592862
      18.588       6.3767136       2.99627       4138.2760  1085592921
      18.790       6.3767224       2.97248       4197.1370  1085592979
      18.993       6.3767288       2.94881       4256.0760  1085593038
      19.195       6.3767374       2.92535       4314.9370  1085593097
      19.397       6.3767447       2.90205       4373.8070  1085593156
      19.600       6.3767529       2.87889       4432.6770  1085593215
      19.803       6.3767617       2.85587       4491.6170  1085593274
      20.005       6.3767704       2.83307       4550.5370  1085593333
      20.208       6.3767787       2.81045       4609.4060  1085593392
      20.410       6.3767881       2.78800       4668.2760  1085593451
      20.612       6.3767990       2.76574       4727.1460  1085593509
      20.815       6.3768082       2.74361       4786.0160  1085593568
      21.017       6.3768172       2.72166       4844.8860  1085593627
      21.219       6.3768269       2.69992       4903.7470  1085593686
      21.420       6.3768368       2.67840       4962.5560  1085593745
      21.622       6.3768473       2.65700       5021.4860  1085593804
      21.823       6.3768559       2.63576       5080.3560  1085593863
      22.024       6.3768658       2.61476       5139.2260  1085593922
      22.226       6.3768772       2.59388       5198.0960  1085593980
      22.427       6.3768887       2.57322       5256.9570  1085594039
      22.629       6.3769003       2.55270       5315.8270  1085594098
      22.831       6.3769117       2.53238       5374.6960  1085594157
      23.032       6.3769254       2.51223       5433.5660  1085594216
      23.234       6.3769372       2.49230       5492.4360  1085594275
      23.435       6.3769509       2.47256       5551.3060  1085594334
      23.637       6.3769644       2.45296       5610.2360  1085594393
      23.839       6.3769772       2.43359       5669.1060  1085594451
      24.041       6.3769913       2.41438       5727.9670  1085594510
      24.242       6.3770051       2.39538       5786.8370  1085594569
      24.444       6.3770200       2.37656       5845.7060  1085594628
      24.646       6.3770345       2.35791       5904.6370  1085594687
      24.847       6.3770485       2.33950       5963.5070  1085594746
      25.049       6.3770642       2.32124       6022.3760  1085594805
      25.251       6.3770812       2.30317       6081.2460  1085594864
      25.454       6.3770976       2.28523       6140.1160  1085594922
      25.657       6.3771122       2.26752       6198.9860  1085594981
      25.858       6.3771296       2.25005       6257.7860  1085595040
      26.060       6.3771643       2.23278       6316.6560  1085595099
      26.262       6.3771829       2.21570       6375.5260  1085595158
      26.464       6.3771983       2.19883       6434.3960  1085595217
      26.666       6.3772193       2.18216       6493.3260  1085595276
      26.868       6.3772383       2.16568       6552.1960  1085595335
      27.070       6.3772563       2.14939       6611.1260  1085595393
      27.273       6.3772756       2.13330       6669.9270  1085595452
      27.475       6.3772958       2.11738       6728.7360  1085595511
      27.679       6.3773150       2.10165       6787.6060  1085595570
      27.883       6.3773368       2.08609       6846.4760  1085595629
      28.087       6.3773562       2.07076       6905.3370  1085595688
      28.290       6.3773821       2.05572       6964.2070  1085595747
      28.492       6.3774046       2.04095       7023.0170  1085595805
      28.693       6.3774262       2.02649       7081.8860  1085595864
      28.894       6.3774470       2.01230       7140.7560  1085595923
      29.094       6.3774657       1.99834       7199.6170  1085595982
      29.298       6.3774843       1.98436       7257.4260  1085596040
      29.498       6.3775058       1.97084       7313.9170  1085596096
      29.701       6.3775283       1.95735       7370.4160  1085596153
      29.901       6.3775528       1.94428       7424.5360  1085596207
      30.102       6.3775759       1.93139       7477.4660  1085596260
      30.305       6.3775985       1.91861       7530.3960  1085596313
      30.508       6.3776217       1.90601       7584.5370  1085596367
      30.709       6.3776460       1.89374       7641.0760  1085596423
      30.910       6.3776677       1.88167       7702.3160  1085596485
      31.114       6.3776917       1.86973       7770.6860  1085596553
      31.316       6.3775760       1.85808       7844.9860  1085596627
      31.516       6.3776003       1.84676       7921.6660  1085596704
      31.718       6.3776253       1.83559       7995.9670  1085596778
      31.923       6.3776560       1.82448       8058.3360  1085596841
      32.132       6.3776896       1.81338       8094.6460  1085596877
      32.340       6.3777176       1.80256       8121.4560  1085596904
      32.547       6.3777434       1.79199       8150.6370  1085596933
      32.753       6.3777699       1.78175       8184.5760  1085596967
      32.956       6.3777972       1.77188       8225.6360  1085597008
      33.156       6.3778255       1.76232       8277.3760  1085597060
      33.357       6.3778560       1.75299       8344.6170  1085597127
      33.559       6.3778839       1.74378       8429.6070  1085597212
      33.760       6.3779166       1.73488       8518.1660  1085597301
      33.962       6.3779495       1.72609       8592.4660  1085597375
      34.166       6.3779746       1.71744       8652.5260  1085597435
      34.369       6.3780065       1.70904       8707.8270  1085597490
      34.571       6.3780346       1.70089       8763.1360  1085597545
      34.772       6.3780625       1.69298       8819.6270  1085597602
      34.973       6.3780892       1.68528       8877.3160  1085597660
      35.175       6.3781184       1.67772       8936.1770  1085597719
      35.375       6.3781358       1.67044       8993.8570  1085597776
      35.577       6.3781688       1.66328       9051.5460  1085597834
      35.778       6.3782016       1.65638       9108.0360  1085597890
      35.982       6.3782364       1.64954       9165.7160  1085597948
      36.182       6.3782678       1.64302       9222.2070  1085598005
      36.386       6.3783129       1.63656       9279.8870  1085598062
      36.590       6.3783504       1.63027       9337.5760  1085598120
      36.793       6.3781985       1.62416       9395.2560  1085598178
      36.994       6.3782321       1.61832       9451.8070  1085598234
      37.194       6.3782629       1.61266       9508.2370  1085598291
      37.395       6.3782994       1.60716       9564.7360  1085598347
      37.598       6.3783268       1.60178       9621.2270  1085598404
      37.800       6.3783666       1.59657       9677.7260  1085598460
      38.000       6.3784095       1.59157       9733.0270  1085598515
      38.201       6.3784515       1.58670       9788.2760  1085598571
      38.402       6.3784940       1.58197       9843.5770  1085598626
      38.607       6.3785459       1.57730       9900.0760  1085598682
      38.812       6.3785862       1.57278       9956.5660  1085598739
      39.013       6.3786288       1.56847       10011.936  1085598794
      39.215       6.3786726       1.56431       10067.246  1085598850
      39.417       6.3787174       1.56027       10122.557  1085598905
      39.620       6.3787600       1.55635       10177.857  1085598960
      39.823       6.3788036       1.55255       10233.226  1085599016
      40.024       6.3788475       1.54891       10287.347  1085599070
      40.225       6.3788915       1.54540       10341.466  1085599124
      40.426       6.3789375       1.54198       10395.577  1085599178
      40.629       6.3789878       1.53866       10449.697  1085599232
      40.833       6.3790349       1.53543       10503.817  1085599286
      41.034       6.3790812       1.53236       10556.747  1085599339
      41.237       6.3791303       1.52936       10609.686  1085599392
      41.441       6.3791789       1.52646       10662.556  1085599445
      41.643       6.3792211       1.52368       10714.296  1085599497
      41.845       6.3792673       1.52100       10766.037  1085599548
      42.046       6.3793164       1.51843       10817.846  1085599600
      42.250       6.3793616       1.51589       10870.777  1085599653
      42.452       6.3794114       1.51347       10922.586  1085599705
      42.653       6.3794551       1.51115       10974.327  1085599757
      42.855       6.3794998       1.50889       11027.266  1085599810
      43.057       6.3795468       1.50672       11081.377  1085599864
      43.257       6.3795931       1.50464       11135.497  1085599918
      43.461       6.3796433       1.50260       11190.867  1085599973
      43.664       6.3796925       1.50063       11246.176  1085600029
      43.865       6.3797406       1.49876       11300.417  1085600083
      44.068       6.3797905       1.49693       11354.536  1085600137
      44.269       6.3798420       1.49518       11407.467  1085600190
      44.472       6.3798918       1.49347       11461.587  1085600244
      44.672       6.3799894       1.49184       11514.517  1085600297
      44.876       6.3800422       1.49024       11568.637  1085600351
      45.077       6.3800895       1.48872       11622.696  1085600405
      45.279       6.3801424       1.48725       11676.816  1085600459
      45.480       6.3801956       1.48583       11731.186  1085600514
      45.683       6.3802505       1.48445       11785.306  1085600568
      45.885       6.3803059       1.48312       11838.236  1085600621
      46.087       6.3803627       1.48184       11889.977  1085600672
      46.287       6.3804185       1.48061       11939.347  1085600722
      46.489       6.3804742       1.47941       11986.346  1085600769
      46.690       6.3805333       1.47825       12034.526  1085600817
      46.893       6.3805901       1.47712       12081.517  1085600864
      47.096       6.3806491       1.47603       12129.706  1085600912
      47.302       6.3807072       1.47496       12177.886  1085600960
      47.502       6.3807688       1.47395       12228.446  1085601011
      47.705       6.3808268       1.47296       12278.997  1085601061
      47.909       6.3808832       1.47200       12330.746  1085601113
      48.110       6.3809491       1.47108       12384.866  1085601167
      48.310       6.3810113       1.47019       12440.236  1085601223
      48.512       6.3810712       1.46932       12497.916  1085601280
      48.716       6.3811340       1.46847       12554.406  1085601337
      48.918       6.3811974       1.46765       12612.086  1085601394
      49.121       6.3812637       1.46685       12672.146  1085601454
      49.325       6.3813279       1.46607       12729.886  1085601512
      49.527       6.3813947       1.46532       12788.756  1085601571
      49.735       6.3814606       1.46457       12846.497  1085601629
      49.940       6.3815278       1.46385       12905.366  1085601688
      50.143       6.3815968       1.46316       12964.236  1085601747
      50.347       6.3816632       1.46248       13024.307  1085601807
      50.548       6.3817309       1.46183       13084.346  1085601867
      50.757       6.3817998       1.46117       13146.777  1085601929
      50.959       6.3818674       1.46055       13210.377  1085601993
      51.162       6.3819314       1.45994       13275.207  1085602058
      51.367       6.3820013       1.45934       13342.386  1085602125
      51.570       6.3820686       1.45876       13410.747  1085602193
      51.770       6.3821370       1.45820       13476.746  1085602259
      51.975       6.3822051       1.45764       13545.107  1085602327
      52.178       6.3822763       1.45710       13617.226  1085602400
      52.380       6.3823402       1.45657       13690.346  1085602473
      52.584       6.3824125       1.45605       13767.026  1085602549
      52.787       6.3824932       1.45554       13837.766  1085602620
      52.991       6.3825648       1.45504       13914.446  1085602697
      53.195       6.3826359       1.45455       13989.936  1085602772
      53.399       6.3827052       1.45407       14060.677  1085602843
      53.602       6.3827764       1.45360       14132.606  1085602915
      53.805       6.3828501       1.45314       14203.347  1085602986
      54.007       6.3829159       1.45269       14268.217  1085603051
      54.208       6.3829891       1.45225       14330.647  1085603113
      54.409       6.3830628       1.45182       14393.077  1085603175
      54.613       6.3831347       1.45139       14450.757  1085603233
      54.815       6.3832092       1.45097       14507.256  1085603290
      55.016       6.3832811       1.45056       14557.817  1085603340
      55.220       6.3833587       1.45015       14607.186  1085603390
      55.422       6.3834349       1.44975       14654.176  1085603437
      55.633       6.3835126       1.44934       14698.796  1085603481
      55.836       6.3835863       1.44895       14739.856  1085603522
      56.042       6.3836647       1.44856       14780.916  1085603563
      56.245       6.3837379       1.44818       14819.596  1085603602
      56.446       6.3838115       1.44781       14855.966  1085603638
      56.649       6.3838867       1.44744       14894.836  1085603677
      56.855       6.3839659       1.44707       14934.767  1085603717
      57.058       6.3840444       1.44671       14973.456  1085603756
      57.269       6.3841138       1.44634       15009.766  1085603792
      57.471       6.3841926       1.44599       15048.506  1085603831
      57.675       6.3842693       1.44564       15088.377  1085603871
      57.876       6.3843432       1.44530       15125.876  1085603908
      58.091       6.3844203       1.44494       15165.746  1085603948
      58.309       6.3845066       1.44458       15211.556  1085603994
      58.510       6.3845867       1.44425       15254.986  1085604037
      58.720       6.3846643       1.44391       15298.416  1085604081
      58.926       6.3847406       1.44358       15341.847  1085604124
      59.127       6.3848187       1.44326       15387.656  1085604170
      59.331       6.3848931       1.44294       15432.227  1085604215
      59.536       6.3849714       1.44262       15480.396  1085604263
      59.737       6.3850508       1.44231       15529.837  1085604312
      59.939       6.3851266       1.44200       15579.197  1085604362
      60.143       6.3852141       1.44169       15632.136  1085604414
      60.349       6.3852866       1.44138       15682.997  1085604465
      60.550       6.3853649       1.44108       15739.496  1085604522
      60.752       6.3854389       1.44078       15793.676  1085604576
      60.955       6.3855175       1.44048       15851.356  1085604634
      61.161       6.3855960       1.44018       15911.416  1085604694
      61.367       6.3856719       1.43988       15970.286  1085604753
      61.568       6.3857519       1.43959       16033.897  1085604816
      61.770       6.3858295       1.43930       16096.327  1085604879
      61.974       6.3859060       1.43901       16158.766  1085604941
      62.179       6.3859906       1.43872       16230.687  1085605013
      62.385       6.3860686       1.43843       16297.867  1085605080
      62.592       6.3861436       1.43814       16362.676  1085605145
      62.793       6.3862203       1.43786       16428.667  1085605211
      62.995       6.3863007       1.43758       16499.416  1085605282
      63.198       6.3863778       1.43730       16570.156  1085605353
      63.417       6.3864640       1.43700       16644.456  1085605427
      63.622       6.3865430       1.43672       16713.947  1085605496
      63.828       6.3866278       1.43644       16785.946  1085605568
      64.035       6.3867065       1.43616       16853.126  1085605635
      64.235       6.3867853       1.43589       16919.116  1085605701
      64.437       6.3868656       1.43562       16985.106  1085605767
      64.639       6.3869456       1.43535       17048.737  1085605831
      64.841       6.3870290       1.43508       17113.536  1085605896
      65.045       6.3871089       1.43481       17174.776  1085605957
      65.257       6.3871894       1.43453       17234.827  1085606017
      65.470       6.3872732       1.43425       17296.076  1085606078
      65.683       6.3873588       1.43397       17356.196  1085606139
      65.897       6.3874449       1.43369       17416.247  1085606199
      66.104       6.3875258       1.43342       17471.556  1085606254
      66.305       6.3876062       1.43316       17525.676  1085606308
      66.505       6.3876834       1.43290       17578.606  1085606361
      66.706       6.3877672       1.43264       17632.726  1085606415
      66.916       6.3878447       1.43237       17683.286  1085606466
      67.118       6.3879287       1.43211       17736.216  1085606519
      67.321       6.3880121       1.43185       17790.336  1085606573
      67.540       6.3880953       1.43157       17844.456  1085606627
      67.744       6.3881787       1.43131       17898.577  1085606681
      67.948       6.3882569       1.43105       17947.937  1085606730
      68.153       6.3883343       1.43079       17998.497  1085606781
      68.358       6.3884189       1.43053       18052.616  1085606835
      68.564       6.3884980       1.43027       18103.176  1085606886
      68.778       6.3885818       1.43000       18158.477  1085606941
      68.992       6.3886660       1.42973       18212.597  1085606995
      69.207       6.3887496       1.42946       18266.716  1085607049
      69.415       6.3888383       1.42920       18324.397  1085607107
      69.622       6.3889153       1.42894       18374.896  1085607157
      69.823       6.3889962       1.42869       18427.826  1085607210
      70.023       6.3890728       1.42844       18477.196  1085607260
      70.224       6.3891512       1.42819       18528.937  1085607311
      70.424       6.3892321       1.42794       18581.867  1085607364
      70.626       6.3893108       1.42769       18633.616  1085607416
      70.827       6.3894020       1.42744       18690.107  1085607472
      71.029       6.3894754       1.42719       18738.567  1085607521
      71.239       6.3895571       1.42693       18792.847  1085607575
      71.441       6.3896406       1.42668       18848.096  1085607630
      71.643       6.3897182       1.42643       18898.647  1085607681
      71.845       6.3897997       1.42618       18952.827  1085607735
      72.048       6.3898750       1.42593       19002.266  1085607785
      72.258       6.3899577       1.42567       19056.386  1085607839
      72.469       6.3900426       1.42541       19111.686  1085607894
      72.672       6.3901195       1.42516       19162.246  1085607945
      72.874       6.3901976       1.42491       19213.987  1085607996
      73.085       6.3902803       1.42465       19268.106  1085608050
      73.304       6.3903660       1.42438       19324.606  1085608107
      73.507       6.3904486       1.42413       19379.907  1085608162
      73.710       6.3905257       1.42388       19429.276  1085608212
      73.913       6.3906067       1.42363       19482.207  1085608265
      74.116       6.3906888       1.42338       19536.327  1085608319
      74.319       6.3907604       1.42313       19586.886  1085608369
      74.522       6.3908433       1.42288       19641.006  1085608423
      74.725       6.3909180       1.42263       19690.376  1085608473
      74.928       6.3909984       1.42238       19743.306  1085608526
      75.130       6.3910795       1.42213       19796.247  1085608579
      75.358       6.3911634       1.42185       19851.546  1085608634
      75.561       6.3912435       1.42160       19904.497  1085608687
      75.763       6.3913285       1.42135       19959.786  1085608742
      75.966       6.3914014       1.42110       20009.156  1085608792
      76.177       6.3914890       1.42084       20065.646  1085608848
      76.380       6.3915738       1.42059       20120.956  1085608903
      76.582       6.3916458       1.42034       20170.386  1085608953
      76.785       6.3917210       1.42009       20219.756  1085609002
      76.988       6.3918054       1.41984       20276.246  1085609059
      77.190       6.3918849       1.41959       20329.177  1085609112
      77.401       6.3919642       1.41933       20382.116  1085609164
      77.603       6.3920437       1.41908       20435.046  1085609217
      77.805       6.3921213       1.41883       20486.786  1085609269
      78.015       6.3922060       1.41857       20543.286  1085609326
      78.217       6.3922832       1.41832       20595.026  1085609377
      78.419       6.3923586       1.41807       20645.586  1085609428
      78.621       6.3924442       1.41782       20703.266  1085609486
      78.831       6.3925205       1.41756       20755.006  1085609537
      79.032       6.3926013       1.41731       20809.126  1085609591
      79.242       6.3926842       1.41705       20865.626  1085609648
      79.443       6.3927618       1.41680       20918.556  1085609701
      79.644       6.3928380       1.41655       20970.296  1085609753
      79.846       6.3929170       1.41630       21024.416  1085609807
      80.047       6.3929973       1.41605       21082.096  1085609864
      80.247       6.3930684       1.41580       21130.277  1085609913
      80.448       6.3931502       1.41555       21186.776  1085609969
      80.648       6.3932316       1.41530       21242.146  1085610024
      80.849       6.3933089       1.41505       21295.136  1085610077
      81.049       6.3933848       1.41480       21346.877  1085610129
      81.257       6.3934657       1.41454       21402.187  1085610185
      81.472       6.3935513       1.41427       21461.056  1085610243
      81.680       6.3936396       1.41401       21521.116  1085610303
      81.895       6.3937215       1.41374       21577.606  1085610360
      82.103       6.3937996       1.41348       21631.726  1085610414
      82.309       6.3938831       1.41322       21689.346  1085610472
      82.516       6.3939637       1.41296       21744.647  1085610527
      82.739       6.3940521       1.41268       21805.896  1085610588
      82.945       6.3941359       1.41242       21863.636  1085610646
      83.151       6.3942128       1.41216       21917.817  1085610700
      83.357       6.3942985       1.41190       21976.686  1085610759
      83.570       6.3943780       1.41163       22031.996  1085610814
      83.776       6.3944592       1.41137       22088.486  1085610871
      83.981       6.3945425       1.41111       22147.417  1085610930
      84.193       6.3946236       1.41084       22202.726  1085610985
      84.398       6.3947092       1.41058       22262.777  1085611045
      84.602       6.3947876       1.41032       22319.276  1085611102
      84.807       6.3948668       1.41006       22374.586  1085611157
      85.010       6.3949457       1.40980       22427.576  1085611210
      85.214       6.3950319       1.40954       22487.696  1085611270
      85.417       6.3951118       1.40928       22545.376  1085611328
      85.628       6.3951889       1.40901       22601.867  1085611384
      85.831       6.3952733       1.40875       22660.736  1085611443
      86.034       6.3953542       1.40849       22717.236  1085611500
      86.236       6.3954312       1.40823       22771.476  1085611554
      86.438       6.3955178       1.40797       22831.536  1085611614
      86.647       6.3955954       1.40770       22885.647  1085611668
      86.856       6.3956840       1.40743       22945.706  1085611728
      87.057       6.3957670       1.40717       23003.386  1085611786
      87.266       6.3958468       1.40690       23059.886  1085611842
      87.474       6.3959285       1.40663       23116.376  1085611899
      87.690       6.3960146       1.40635       23177.677  1085611960
      87.897       6.3961057       1.40608       23242.497  1085612025
      88.104       6.3961839       1.40581       23301.606  1085612084
      88.311       6.3962702       1.40554       23361.657  1085612144
      88.518       6.3963572       1.40527       23422.906  1085612205
      88.725       6.3964324       1.40500       23478.207  1085612261
      88.931       6.3965238       1.40473       23543.016  1085612325
      89.136       6.3966046       1.40446       23600.767  1085612383
      89.349       6.3966875       1.40418       23659.627  1085612442
      89.555       6.3967716       1.40391       23719.686  1085612502
      89.760       6.3968541       1.40364       23778.556  1085612561
      89.972       6.3969389       1.40336       23838.607  1085612621
      90.184       6.3970254       1.40308       23899.856  1085612682
      90.387       6.3971116       1.40281       23961.096  1085612743
      90.591       6.3971891       1.40254       24016.526  1085612799
      90.795       6.3972720       1.40227       24075.396  1085612858
      91.005       6.3973546       1.40199       24137.826  1085612920
      91.208       6.3974365       1.40172       24196.756  1085612979
      91.418       6.3975204       1.40144       24256.816  1085613039
      91.620       6.3976033       1.40117       24316.867  1085613099
      91.822       6.3976865       1.40090       24376.926  1085613159
      92.023       6.3977663       1.40063       24434.606  1085613217
      92.224       6.3978512       1.40036       24495.916  1085613278
      92.433       6.3979335       1.40008       24555.966  1085613338
      92.641       6.3980152       1.39980       24616.026  1085613398
      92.841       6.3981014       1.39953       24678.516  1085613461
      93.048       6.3981846       1.39925       24739.757  1085613522
      93.255       6.3982656       1.39897       24798.696  1085613581
      93.461       6.3983516       1.39869       24862.316  1085613645
      93.667       6.3984343       1.39841       24923.556  1085613706
      93.873       6.3985154       1.39813       24983.676  1085613766
      94.078       6.3985967       1.39785       25043.726  1085613826
      94.290       6.3986827       1.39756       25107.346  1085613890
      94.502       6.3987666       1.39727       25169.776  1085613952
      94.713       6.3988537       1.39698       25234.586  1085614017
      94.916       6.3989386       1.39670       25298.266  1085614081
      95.119       6.3990184       1.39642       25358.316  1085614141
      95.322       6.3991011       1.39614       25420.747  1085614203
      95.524       6.3991837       1.39586       25483.177  1085614266
      95.725       6.3992636       1.39558       25544.426  1085614327
      95.926       6.3993444       1.39530       25606.787  1085614389
      96.127       6.3994227       1.39502       25665.657  1085614448
      96.327       6.3995018       1.39474       25728.087  1085614510
      96.533       6.3995753       1.39445       25789.336  1085614572
      96.739       6.3996568       1.39416       25852.956  1085614635
      96.945       6.3997421       1.39387       25920.136  1085614703
      97.150       6.3998169       1.39358       25978.997  1085614761
      97.362       6.3998988       1.39328       26044.996  1085614827
      97.573       6.3999778       1.39298       26107.426  1085614890
      97.777       6.4000591       1.39269       26173.416  1085614956
      97.980       6.4001409       1.39240       26238.226  1085615021
      98.183       6.4002143       1.39211       26299.406  1085615082
      98.386       6.4002918       1.39182       26362.956  1085615145
      98.588       6.4003677       1.39153       26426.576  1085615209
      98.789       6.4004469       1.39124       26489.067  1085615271
      98.991       6.4005201       1.39095       26550.316  1085615333
      99.192       6.4005993       1.39066       26616.317  1085615399
      99.392       6.4006743       1.39037       26677.547  1085615460
      99.592       6.4007505       1.39008       26739.916  1085615522
      99.799       6.4008283       1.38978       26804.726  1085615587
      100.01       6.4009018       1.38947       26868.337  1085615651
      100.03       6.4009100       1.38944       26874.936  1085615657
