[FileHeader]
Idn=THEX 1.0 for LINUX
Insert=A
Cell=C
p_Cell=300 mB (RT)        
p_Heater=DiffP              
T_Slope=0.000000
H_Field=0.000000
K0=6.048000
CalFile=NULL
SampleSensor=GaAs9356
HeaterSensor=9243
L0=2.600000
SampleID=Silberstempel 2.60 mm CStart=4.78 pF
;
StartTime=Thu Jan  9 13:18:55 2003
EndTime=Fri Jan 10 04:41:21 2003
NoofCols=8
DataPoints=668
ColID1=t [s]
ColID2=Ts [K]
ColID3=Loss [GOhm]
ColID4=Ts-Th [K]
ColID5=PHeat [W]
ColID6=TotHeat [Ws]
ColID7=He-Level [%]
ColID8=Date [s]
#XMeas: CreationTime=Fri Jan 10 04:41:21 2003
@EOH
      1.1040000       20.277         -464   0.255 0.00       0.0000  85.4  1042115578
      154.62400       20.679         -464  -0.093 0.00       2.8625  85.3  1042115732
      226.57400       21.083         -462  -0.214 0.00       2.8625  85.2  1042115804
      291.65400       21.484         -460  -0.256 0.00       3.1945  85.2  1042115869
      356.95400       21.885         -459  -0.279 0.00       3.1945  85.2  1042115934
      424.36400       22.289         -465  -0.293 0.00       3.1945  85.3  1042116001
      492.88400       22.691         -464  -0.308 0.00       3.5265  85.2  1042116070
      563.70400       23.097         -463  -0.322 0.00       3.8595  85.2  1042116141
      635.67400       23.502         -457  -0.336 0.00       4.1920  85.2  1042116213
      708.79400       23.905         -468  -0.347 0.00       4.5255  85.3  1042116286
      783.05400       24.307         -466  -0.359 0.00       4.5255  85.1  1042116360
      858.46400       24.707         -471  -0.378 0.00       4.8580  85.1  1042116436
      936.14400       25.110         -468  -0.401 0.00       4.8580  85.1  1042116513
      1014.9440       25.511         -477  -0.408 0.00       4.8580  85.1  1042116592
      1095.1240       25.915         -470  -0.384 0.00       5.2010  85.0  1042116672
      1175.0940       26.315         -462  -0.378 0.00       5.2010  84.9  1042116752
      1257.2940       26.717         -469  -0.474 0.00       5.2010  85.0  1042116834
      1344.0940       27.121         -466  -0.618 0.00       5.2010  84.9  1042116921
      1433.2140       27.524         -472  -0.559 0.00       5.2010  85.0  1042117010
      1516.6140       27.927         -468  -0.074 0.00       5.2010  85.0  1042117094
      1596.6340       28.332         -465  -0.202 0.00       5.2585  85.0  1042117174
      1682.3340       28.735         -470  -0.566 0.00       5.2585  85.1  1042117259
      1773.7140       29.140         -470  -0.584 0.00       5.2585  85.0  1042117351
      1864.0140       29.541         -468  -0.566 0.00       5.2585  84.9  1042117441
      1954.2840       29.941         -468  -0.612 0.00       5.2585  84.8  1042117531
      2045.8640       30.343         -468  -0.640 0.00       5.2585  84.9  1042117623
      2138.4240       30.747         -485  -0.663 0.00       5.5905  84.8  1042117715
      2230.9550       31.148         -465  -0.695 0.00       5.6475  84.8  1042117808
      2323.4840       31.551         -455  -0.725 0.00       5.6475  84.7  1042117901
      2416.0640       31.952         -457  -0.752 0.00       5.6475  84.8  1042117993
      2509.7840       32.356         -460  -0.776 0.00       5.9800  84.8  1042118087
      2603.4840       32.760         -455  -0.801 0.00       6.3100  84.7  1042118181
      2697.2640       33.164         -460  -0.821 0.00       6.3675  84.6  1042118274
      2791.0640       33.568         -460  -0.839 0.00       6.7615  84.6  1042118368
      2884.8040       33.971         -456  -0.845 0.00       6.8190  84.5  1042118462
      2978.5440       34.374         -456  -0.848 0.00       6.8765  84.6  1042118556
      3073.5040       34.777         -457  -0.832 0.00       7.3275  84.5  1042118651
      3176.4240       35.181         -452  -0.784 0.00       11.798  84.5  1042118753
      3277.0940       35.586         -455  -0.828 0.05       17.988  84.6  1042118854
      3372.0240       35.989         -451  -0.852 0.10       24.856  84.4  1042118949
      3463.6740       36.395         -452  -0.911 0.10       32.245  84.4  1042119041
      3551.7540       36.795         -450  -0.963 0.10       39.850  84.4  1042119129
      3636.4340       37.196         -455  -0.980 0.10       48.318  84.4  1042119213
      3719.8940       37.600         -456  -0.987 0.10       56.320  84.3  1042119297
      3803.3240       38.004         -455  -1.000 0.10       64.663  84.5  1042119380
      3885.5850       38.407         -455  -1.007 0.10       72.889  84.3  1042119463
      3964.4540       38.813         -451  -0.998 0.10       82.094  84.2  1042119541
      4038.7140       39.216         -455  -0.974 0.15       91.297  84.2  1042119616
      4112.9740       39.620         -457  -0.942 0.10       100.20  84.2  1042119690
      4189.5040       40.022         -457  -0.921 0.10       108.76  84.1  1042119767
      4270.6740       40.425         -459  -0.923 0.10       117.49  84.2  1042119848
      4354.1540       40.826         -458  -0.938 0.10       126.07  84.1  1042119931
      4439.9440       41.229         -460  -0.965 0.10       135.55  84.0  1042120017
      4526.8440       41.632         -460  -0.996 0.10       145.72  84.1  1042120104
      4616.0440       42.035         -460  -1.042 0.10       155.44  84.1  1042120193
      4709.9940       42.436         -457  -1.110 0.10       164.67  84.0  1042120287
      4809.5440       42.836         -459  -1.210 0.10       174.29  84.1  1042120387
      4915.9540       43.236         -459  -1.337 0.10       184.93  84.0  1042120493
      5028.0240       43.638         -462  -1.500 0.10       195.81  84.0  1042120605
      5141.2740       44.040         -467  -1.658 0.10       206.92  83.9  1042120718
      5254.6240       44.442         -464  -1.818 0.15       218.82  83.9  1042120832
      5361.0240       44.845         -465  -1.948 0.15       234.04  83.8  1042120938
      5459.3940       45.249         -463  -2.027 0.15       248.52  83.8  1042121036
      5546.3340       45.653         -452  -2.058 0.20       265.52  83.9  1042121123
      5622.9540       46.053         -457  -2.039 0.25       283.32  83.7  1042121200
      5692.6540       46.460         -457  -1.987 0.25       300.41  83.9  1042121270
      5759.0040       46.870         -456  -1.917 0.25       316.66  83.7  1042121336
      5824.0940       47.274         -459  -1.836 0.25       332.60  83.8  1042121401
      5889.2440       47.680         -462  -1.769 0.20       348.49  83.7  1042121466
      5955.4940       48.083         -462  -1.696 0.20       363.81  83.6  1042121533
      6025.1440       48.487         -461  -1.640 0.20       377.81  83.6  1042121602
      6098.2740       48.888         -462  -1.606 0.20       393.07  83.6  1042121675
      6173.6240       49.288         -462  -1.580 0.20       408.25  83.7  1042121751
      6254.7040       49.696         -463  -1.581 0.20       424.08  83.7  1042121832
      6339.5040       50.104         -460  -1.601 0.20       440.36  83.7  1042121917
      6429.9940       50.510         -456  -1.659 0.15       458.12  83.6  1042122007
      6523.8040       50.913         -457  -1.695 0.20       476.04  83.6  1042122101
      6619.8540       51.315         -456  -1.732 0.30       493.25  83.5  1042122197
      6718.1840       51.716         -456  -1.774 0.35       508.55  83.3  1042122295
      6815.3840       52.121         -455  -2.030 0.10       526.40  83.4  1042122392
      6915.9840       52.525         -452  -2.247 0.00       551.29  83.5  1042122493
      7012.0040       52.926         -452  -2.225 0.15       577.36  83.3  1042122589
      7109.1440       53.326         -451  -2.120 0.50       595.73  83.4  1042122686
      7198.3640       53.729         -451  -2.359 0.10       611.30  83.3  1042122775
      7288.7740       54.130         -448  -2.434 0.10       645.34  83.3  1042122866
      7375.6140       54.532         -450  -2.240 0.55       658.98  83.2  1042122953
      7456.7740       54.932         -451  -2.558 0.05       682.82  83.3  1042123034
      7541.3740       55.336         -451  -2.343 0.45       710.40  83.2  1042123118
      7622.5640       55.737         -453  -2.474 0.15       721.93  83.2  1042123200
      7708.3240       56.138         -447  -2.504 0.20       760.55  83.1  1042123285
      7791.7640       56.545         -452  -2.374 0.45       769.66  83.2  1042123369
      7872.9340       56.951         -454  -2.625 0.00       802.07  83.1  1042123450
      7958.6350       57.355         -448  -2.337 0.65       822.75  83.0  1042123536
      8037.5040       57.758         -448  -2.667 0.00       846.10  83.1  1042123615
      8123.2440       58.163         -452  -2.413 0.55       876.66  83.1  1042123700
      8203.2340       58.566         -455  -2.616 0.05       890.08  82.9  1042123780
      8289.0440       58.970         -454  -2.496 0.40       932.03  83.0  1042123866
      8371.3840       59.376         -455  -2.560 0.30       940.62  83.0  1042123948
      8454.7840       59.782         -457  -2.627 0.20       985.29  82.8  1042124032
      8533.8640       60.183         -459  -2.508 0.45       992.68  82.8  1042124111
      8616.2340       60.583         -460  -2.703 0.05       1037.2  82.9  1042124193
      8697.3740       60.989         -459  -2.490 0.50       1048.8  82.8  1042124274
      8777.4340       61.395         -459  -2.731 0.00       1089.6  82.8  1042124354
      8861.9840       61.798         -460  -2.452 0.65       1107.4  82.9  1042124439
      8938.5340       62.200         -463  -2.759 0.00       1143.6  82.7  1042124516
      9025.4940       62.606         -463  -2.436 0.75       1165.5  82.8  1042124603
      9103.2640       63.009         -470  -2.819 0.00       1198.9  82.8  1042124680
      9187.8540       63.417         -463  -2.459 0.75       1225.3  82.6  1042124765
      9266.7240       63.828         -460  -2.804 0.05       1253.9  82.8  1042124844
      9352.5440       64.228         -463  -2.463 0.75       1286.9  82.5  1042124930
      9432.5340       64.631         -465  -2.810 0.05       1310.0  82.7  1042125010
      9519.3540       65.037         -464  -2.513 0.75       1352.0  82.5  1042125096
      9599.4140       65.447         -464  -2.826 0.05       1367.3  82.5  1042125176
      9686.2750       65.859         -465  -2.548 0.70       1417.8  82.5  1042125263
      9767.4540       66.266         -465  -2.841 0.10       1428.6  82.5  1042125344
      9851.0040       66.675         -467  -2.623 0.60       1482.2  82.5  1042125428
      9932.1440       67.087         -469  -2.824 0.20       1491.9  82.5  1042125509
      10020.164       67.493         -471  -2.727 0.45       1549.1  82.5  1042125597
      10096.664       67.893         -471  -2.802 0.25       1554.2  82.4  1042125674
      10181.254       68.295         -473  -2.741 0.40       1612.2  82.4  1042125758
      10261.234       68.699         -475  -2.803 0.35       1618.6  82.4  1042125838
      10343.544       69.104         -476  -2.759 0.40       1676.5  82.3  1042125921
      10426.944       69.511         -476  -2.780 0.40       1685.3  82.2  1042126004
      10511.584       69.911         -476  -2.854 0.20       1743.6  82.3  1042126089
      10590.414       70.320         -478  -2.787 0.40       1750.0  82.2  1042126167
      10677.334       70.722         -471  -2.921 0.10       1810.6  82.2  1042126254
      10759.654       71.134         -477  -2.789 0.55       1821.1  82.1  1042126337
      10845.674       71.546         -478  -2.976 0.00       1878.4  82.1  1042126423
      10930.244       71.958         -480  -2.736 0.70       1893.3  82.1  1042126507
      11011.384       72.364         -474  -3.040 0.00       1947.5  82.0  1042126588
      11100.544       72.769         -475  -2.767 0.80       1968.3  82.1  1042126678
      11181.764       73.174         -480  -3.114 0.00       2017.1  82.0  1042126759
      11266.374       73.580         -490  -2.748 0.85       2039.6  81.9  1042126843
      11350.964       73.986         -481  -3.190 0.00       2087.1  81.9  1042126928
      11436.794       74.392         -482  -2.771 0.95       2115.9  82.0  1042127014
      11520.284       74.798         -484  -3.259 0.00       2159.7  82.0  1042127097
      11609.524       75.204         -494  -2.817 1.00       2196.3  81.9  1042127187
      11690.764       75.609         -488  -3.277 0.05       2230.7  81.8  1042127268
      11781.215       76.015         -484  -2.904 0.90       2276.7  81.9  1042127358
      11864.714       76.420         -480  -3.284 0.05       2300.8  81.8  1042127442
      11953.984       76.826         -485  -2.946 0.90       2360.2  81.7  1042127531
      12037.504       77.230         -484  -3.349 0.10       2375.4  81.9  1042127615
      12128.934       77.643         -481  -3.078 0.75       2442.0  81.7  1042127706
      12211.234       78.048         -487  -3.382 0.15       2452.3  81.7  1042127788
      12300.424       78.451         -487  -3.203 0.60       2521.2  81.7  1042127877
      12382.754       78.855         -487  -3.385 0.25       2528.5  81.5  1042127960
      12471.934       79.266         -489  -3.317 0.40       2599.8  81.6  1042128049
      12558.774       79.669         -488  -3.332 0.55       2608.5  81.6  1042128136
      12643.495       80.071         -490  -3.415 0.25       2679.4  81.5  1042128221
      12731.614       80.472         -492  -3.365 0.60       2691.4  81.5  1042128309
      12816.294       80.881         -489  -3.524 0.05       2759.6  81.5  1042128393
      12904.344       81.281         -493  -3.359 0.80       2774.7  81.4  1042128481
      12991.274       81.688         -533  -3.694 0.00       2840.2  81.4  1042128568
      13082.774       82.095         -531  -3.388 0.95       2864.4  81.4  1042128660
      13167.514       82.500         -501  -3.804 0.00       2920.7  81.5  1042128745
      13259.114       82.905         -494  -3.420 1.05       2955.3  81.2  1042128836
      13340.274       83.309         -491  -3.878 0.00       3001.6  81.3  1042128917
      13431.804       83.712         -498  -3.450 1.10       3043.8  81.4  1042129009
      13515.234       84.115         -496  -3.966 0.05       3084.3  81.3  1042129092
      13604.434       84.516         -498  -3.540 1.05       3131.4  81.3  1042129181
      13691.334       84.932         -498  -3.961 0.05       3164.7  81.2  1042129268
      13786.304       85.347         -493  -3.648 0.90       3233.3  81.2  1042129363
      13874.314       85.753         -494  -3.974 0.20       3249.5  81.1  1042129451
      13965.804       86.166         -493  -3.821 0.65       3330.3  80.9  1042129543
      14054.974       86.570         -488  -4.002 0.45       3340.7  81.0  1042129632
      14141.874       86.972         -490  -4.011 0.35       3419.9  81.0  1042129719
      14227.574       87.382         -488  -4.001 0.55       3429.4  80.9  1042129805
      14317.984       87.782         -491  -4.157 0.05       3508.7  80.8  1042129895
      14407.154       88.189         -485  -4.030 0.80       3525.6  81.0  1042129984
      14497.524       88.595         -487  -4.331 0.00       3596.2  81.0  1042130075
      14586.754       88.999         -485  -3.978 1.10       3623.3  80.7  1042130164
      14673.664       89.403         -485  -4.436 0.00       3689.1  80.7  1042130251
      14763.984       89.813         -485  -4.047 1.15       3723.6  80.7  1042130341
      14852.324       90.229         -485  -4.537 0.00       3781.3  80.7  1042130429
      14947.214       90.644         -490  -4.084 1.30       3832.6  80.8  1042130524
      15033.024       91.050         -488  -4.628 0.00       3875.7  80.6  1042130610
      15125.674       91.470         -491  -4.179 1.20       3937.2  80.6  1042130703
      15212.574       91.874         -487  -4.651 0.05       3969.0  80.6  1042130790
      15302.974       92.284         -488  -4.244 1.15       4042.4  80.5  1042130880
      15387.554       92.693         -488  -4.722 0.05       4066.3  80.4  1042130965
      15481.394       93.100         -482  -4.360 1.15       4147.8  80.4  1042131058
      15566.064       93.513         -478  -4.761 0.15       4166.7  80.5  1042131143
      15656.424       93.917         -477  -4.457 1.05       4251.7  80.4  1042131233
      15741.095       94.326         -478  -4.818 0.15       4267.9  80.2  1042131318
      15830.294       94.735         -478  -4.517 1.00       4355.2  80.2  1042131407
      15916.074       95.141         -471  -4.853 0.20       4371.6  80.4  1042131493
      16005.274       95.545         -475  -4.591 1.00       4460.8  80.3  1042131582
      16086.534       95.948         -472  -4.917 0.15       4474.6  80.2  1042131664
      16180.344       96.348         -475  -4.655 1.00       4567.6  80.2  1042131757
      16260.434       96.754         -477  -5.007 0.10       4581.3  80.2  1042131837
      16348.524       97.157         -474  -4.623 1.25       4667.6  80.0  1042131926
      16430.834       97.559         -477  -5.077 0.05       4690.1  80.1  1042132008
      16522.324       97.973         -474  -4.668 1.25       4774.8  80.1  1042132099
      16605.854       98.379         -478  -5.116 0.05       4799.9  80.2  1042132183
      16695.074       98.782         -478  -4.685 1.40       4882.5  80.0  1042132272
      16773.984       99.185         -480  -5.189 0.00       4911.9  80.0  1042132351
      16865.554       99.592         -480  -4.719 1.40       4986.9  80.0  1042132443
      16946.754       100.01         -478  -5.221 0.00       5025.0  80.0  1042132524
      17039.524       100.41         -478  -4.777 1.40       5097.2  79.9  1042132617
      17117.304       100.81         -475  -5.238 0.00       5139.4  79.9  1042132694
      17208.814       101.22         -478  -4.770 1.45       5203.0  79.7  1042132786
      17288.904       101.63         -478  -5.263 0.00       5256.4  79.8  1042132866
      17376.974       102.03         -477  -4.804 1.45       5308.0  79.7  1042132954
      17459.234       102.45         -477  -5.258 0.00       5377.3  79.9  1042133036
      17548.444       102.85         -480  -4.840 1.40       5418.9  79.7  1042133125
      17627.334       103.25         -477  -5.216 0.05       5502.0  79.6  1042133204
      17710.834       103.66         -480  -4.984 1.00       5521.8  79.6  1042133288
      17790.914       104.06         -477  -5.083 0.65       5624.4  79.7  1042133368
      17875.544       104.46         -480  -5.166 0.50       5635.3  79.7  1042133453
      17957.954       104.87         -478  -4.989 1.10       5740.1  79.5  1042133535
      18040.224       105.27         -478  -5.309 0.15       5757.2  79.5  1042133617
      18124.904       105.67         -481  -4.915 1.45       5850.4  79.5  1042133702
      18201.594       106.08         -481  -5.400 0.00       5885.9  79.5  1042133779
      18287.424       106.49         -482  -4.907 1.55       5953.3  79.4  1042133864
      18365.224       106.89         -478  -5.345 0.00       6016.3  79.3  1042133942
      18448.734       107.30         -481  -4.915 1.35       6055.4  79.4  1042134026
      18526.424       107.71         -480  -5.190 0.30       6151.6  79.3  1042134103
      18608.704       108.11         -480  -5.067 0.80       6164.9  79.3  1042134186
      18693.274       108.52         -480  -5.055 0.90       6279.6  79.3  1042134270
      18773.284       108.93         -477  -5.231 0.35       6292.5  79.4  1042134350
      18855.614       109.34         -477  -4.890 1.50       6393.1  79.3  1042134433
      18929.954       109.74         -478  -5.341 0.05       6428.7  79.2  1042134507
      19014.634       110.14         -478  -4.857 1.60       6497.6  79.1  1042134592
      19088.924       110.55         -475  -5.246 0.00       6568.5  79.1  1042134666
      19172.364       110.96         -478  -4.897 1.25       6600.2  79.1  1042134749
      19247.984       111.36         -480  -5.038 0.75       6706.7  79.1  1042134825
      19328.015       111.77         -478  -5.094 0.45       6718.1  79.1  1042134905
      19410.445       112.18         -481  -4.838 1.40       6828.8  79.0  1042134987
      19484.784       112.58         -478  -5.252 0.05       6859.5  79.0  1042135062
      19564.864       112.98         -484  -4.731 1.70       6927.0  79.0  1042135142
      19641.424       113.39         -481  -5.190 0.00       7006.3  78.9  1042135218
      19720.324       113.79         -480  -4.841 1.15       7031.7  79.0  1042135297
      19800.324       114.20         -482  -4.941 0.80       7149.0  79.0  1042135377
      19876.874       114.61         -482  -5.057 0.30       7161.2  79.0  1042135454
      19956.924       115.01         -485  -4.685 1.65       7266.0  78.9  1042135534
      20031.334       115.41         -482  -5.159 0.00       7309.8  78.8  1042135608
      20113.694       115.82         -484  -4.660 1.65       7372.5  78.7  1042135691
      20188.054       116.23         -485  -5.013 0.20       7462.3  78.6  1042135765
      20266.894       116.64         -480  -4.775 0.95       7480.0  78.6  1042135844
      20345.764       117.05         -494  -4.719 1.20       7602.1  78.5  1042135923
      20420.184       117.45         -487  -4.998 0.10       7620.6  78.5  1042135997
      20501.334       117.85         -488  -4.517 1.80       7711.7  78.5  1042136078
      20574.484       118.26         -490  -4.995 0.00       7777.3  78.7  1042136152
      20654.534       118.66         -488  -4.592 1.40       7815.9  78.5  1042136232
      20731.134       119.07         -490  -4.765 0.70       7930.9  78.5  1042136308
      20807.764       119.48         -493  -4.778 0.50       7942.5  78.4  1042136385
      20889.034       119.88         -487  -4.504 1.60       8060.2  78.4  1042136466
      20961.024       120.29         -490  -4.923 0.00       8096.7  78.5  1042136538
      21042.144       120.70         -485  -4.414 1.75       8167.7  78.4  1042136619
      21118.864       121.12         -487  -4.815 0.05       8254.9  78.3  1042136696
      21197.734       121.52         -488  -4.478 1.20       8281.9  78.4  1042136775
      21275.444       121.93         -488  -4.551 0.95       8404.9  78.3  1042136852
      21350.864       122.34         -488  -4.695 0.30       8420.2  78.3  1042136928
      21432.054       122.74         -488  -4.306 1.75       8530.2  78.3  1042137009
      21504.074       123.15         -491  -4.768 0.00       8580.8  78.2  1042137081
      21585.264       123.55         -491  -4.289 1.70       8637.3  78.2  1042137162
      21658.494       123.95         -487  -4.589 0.40       8740.3  78.3  1042137236
      21736.384       124.36         -482  -4.452 0.80       8755.6  78.1  1042137313
      21815.294       124.76         -482  -4.313 1.40       8882.2  78.0  1042137392
      21887.334       125.16         -485  -4.646 0.05       8906.9  78.0  1042137464
      21969.734       125.57         -484  -4.125 1.95       8997.2  78.1  1042137547
      22041.734       125.97         -481  -4.599 0.00       9073.4  78.0  1042137619
      22121.854       126.38         -482  -4.206 1.40       9107.8  77.9  1042137699
      22198.494       126.79         -481  -4.335 0.90       9233.2  77.8  1042137776
      22275.064       127.19         -480  -4.431 0.45       9246.2  77.8  1042137852
      22356.224       127.60         -482  -4.100 1.75       9368.1  77.7  1042137933
      22427.094       128.00         -477  -4.542 0.00       9408.8  77.8  1042138004
      22508.304       128.41         -480  -4.043 1.85       9479.8  77.8  1042138085
      22582.594       128.81         -498  -4.425 0.10       9574.3  77.7  1042138160
      22661.544       129.22         -482  -4.117 1.20       9601.1  77.6  1042138239
      22738.214       129.62         -481  -4.165 1.05       9731.3  77.7  1042138315
      22812.544       130.02         -488  -4.352 0.25       9745.5  77.5  1042138390
      22893.734       130.43         -454  -3.926 1.90       9858.1  77.5  1042138471
      22969.164       130.83         -480  -4.428 0.05       9911.5  77.6  1042138546
      23048.054       131.23         -465  -3.934 1.80       9977.9  77.3  1042138625
      23123.524       131.63         -512  -4.306 0.15       10078.  77.5  1042138701
      23203.594       132.04         -500  -4.014 1.25       10106.  77.5  1042138781
      23280.284       132.44         -519  -4.071 1.05       10236.  77.5  1042138857
      23355.825       132.85         -459  -4.206 0.40       10252.  77.3  1042138933
      23438.144       133.25         -500  -3.888 1.75       10374.  77.2  1042139015
      23512.514       133.66         -465  -4.312 0.00       10415.  77.2  1042139090
      23597.144       134.06         -485  -3.810 2.00       10503.  77.4  1042139174
      23671.454       134.47         -487  -4.274 0.00       10581.  77.2  1042139248
      23755.004       134.87         -485  -3.836 1.75       10630.  77.2  1042139332
      23832.754       135.28         -481  -4.151 0.35       10749.  77.1  1042139410
      23912.744       135.68         -476  -3.972 1.10       10769.  77.1  1042139490
      23992.764       136.09         -482  -3.977 1.10       10904.  77.3  1042139570
      24068.184       136.49         -484  -4.141 0.35       10920.  77.0  1042139645
      24155.034       136.90         -485  -3.844 1.70       11051.  77.0  1042139732
      24231.614       137.30         -484  -4.246 0.05       11086.  77.1  1042139809
      24316.284       137.71         -487  -3.761 2.05       11190.  76.9  1042139893
      24391.754       138.11         -485  -4.279 0.00       11254.  77.0  1042139969
      24477.514       138.51         -485  -3.798 1.95       11331.  77.1  1042140055
      24552.964       138.92         -487  -4.217 0.05       11420.  77.0  1042140130
      24637.634       139.32         -488  -3.800 1.80       11470.  76.8  1042140215
      24717.734       139.72         -485  -4.171 0.20       11588.  76.8  1042140295
      24801.214       140.13         -482  -3.891 1.45       11620.  76.9  1042140378
      24881.294       140.53         -484  -4.082 0.65       11756.  76.7  1042140458
      24962.444       140.93         -482  -4.038 0.90       11774.  76.8  1042140539
      25045.934       141.33         -482  -4.012 1.15       11915.  76.7  1042140623
      25124.824       141.74         -485  -4.157 0.45       11934.  76.7  1042140702
      25210.574       142.15         -484  -3.932 1.50       12071.  76.7  1042140788
      25288.274       142.55         -484  -4.244 0.20       12099.  76.7  1042140865
      25374.104       142.95         -481  -3.874 1.85       12224.  76.6  1042140951
      25455.285       143.36         -487  -4.299 0.10       12266.  76.5  1042141032
      25543.314       143.77         -487  -3.880 1.95       12386.  76.5  1042141120
      25621.054       144.17         -485  -4.351 0.05       12434.  76.4  1042141198
      25708.084       144.57         -484  -3.885 2.05       12539.  76.5  1042141285
      25786.935       144.97         -482  -4.387 0.00       12602.  76.4  1042141364
      25873.784       145.38         -482  -3.922 2.00       12697.  76.4  1042141451
      25952.684       145.78         -485  -4.395 0.00       12768.  76.4  1042141530
      26040.734       146.18         -480  -3.942 2.00       12856.  76.3  1042141618
      26118.464       146.59         -481  -4.404 0.00       12933.  76.2  1042141695
      26205.394       146.99         -485  -3.953 2.00       13013.  76.2  1042141782
      26286.524       147.39         -485  -4.415 0.00       13100.  76.0  1042141864
      26374.664       147.80         -485  -3.975 2.00       13179.  76.0  1042141952
      26457.034       148.20         -487  -4.458 0.00       13269.  76.1  1042142034
      26543.894       148.61         -488  -4.014 2.00       13346.  76.1  1042142121
      26625.174       149.02         -488  -4.476 0.00       13439.  76.0  1042142202
      26713.224       149.42         -490  -4.038 2.00       13513.  76.0  1042142290
      26793.264       149.82         -490  -4.501 0.00       13612.  75.8  1042142370
      26881.374       150.22         -487  -4.080 2.00       13679.  75.9  1042142458
      26962.634       150.62         -487  -4.542 0.00       13788.  76.0  1042142540
      27049.654       151.02         -493  -4.125 1.95       13846.  75.8  1042142627
      27129.724       151.42         -490  -4.537 0.10       13965.  75.8  1042142707
      27217.844       151.84         -490  -4.179 1.85       14015.  75.8  1042142795
      27301.394       152.24         -477  -4.562 0.15       14144.  75.8  1042142878
      27386.044       152.65         -499  -4.252 1.70       14188.  75.5  1042142963
      27468.444       153.05         -501  -4.547 0.40       14324.  75.6  1042143045
      27555.414       153.46         -501  -4.302 1.60       14361.  75.6  1042143132
      27635.494       153.86         -501  -4.522 0.65       14502.  75.5  1042143213
      27718.934       154.26         -502  -4.392 1.25       14528.  75.6  1042143296
      27801.414       154.67         -500  -4.462 1.00       14678.  75.5  1042143378
      27881.564       155.07         -500  -4.489 0.80       14699.  75.5  1042143459
      27967.334       155.47         -499  -4.399 1.40       14853.  75.3  1042143544
      28046.274       155.88         -498  -4.566 0.50       14878.  75.4  1042143623
      28130.934       156.28         -501  -4.313 1.80       15025.  75.4  1042143708
      28206.344       156.68         -493  -4.653 0.15       15064.  75.4  1042143783
      28293.284       157.09         -499  -4.244 2.15       15192.  75.4  1042143870
      28371.034       157.50         -501  -4.679 0.00       15255.  75.2  1042143948
      28457.934       157.91         -499  -4.231 2.20       15361.  75.2  1042144035
      28534.594       158.31         -498  -4.666 0.05       15448.  75.2  1042144112
      28619.204       158.71         -499  -4.253 2.05       15525.  75.2  1042144196
      28694.724       159.11         -497  -4.585 0.40       15640.  75.1  1042144272
      28777.054       159.52         -498  -4.280 1.60       15681.  75.1  1042144354
      28857.114       159.92         -501  -4.451 0.95       15830.  75.0  1042144434
      28937.174       160.32         -501  -4.402 0.95       15856.  75.0  1042144514
      29019.594       160.73         -505  -4.304 1.65       16015.  75.0  1042144597
      29093.964       161.13         -502  -4.542 0.20       16052.  74.9  1042144671
      29176.314       161.53         -494  -4.138 2.25       16178.  75.0  1042144753
      29249.474       161.94         -496  -4.566 0.05       16262.  75.0  1042144827
      29329.614       162.34         -502  -4.122 2.10       16330.  74.8  1042144907
      29404.044       162.74         -507  -4.379 0.85       16467.  74.8  1042144981
      29481.864       163.16         -504  -4.268 1.05       16497.  74.8  1042145059
      29560.794       163.56         -507  -4.139 1.80       16652.  74.5  1042145138
      29631.684       163.96         -503  -4.408 0.15       16704.  74.6  1042145209
      29709.444       164.37         -502  -3.963 2.25       16798.  74.6  1042145286
      29781.414       164.77         -502  -4.264 0.70       16920.  74.4  1042145358
      29855.744       165.18         -501  -4.087 1.20       16960.  74.4  1042145433
      29931.304       165.58         -498  -3.981 1.75       17100.  74.4  1042145508
      30001.134       165.99         -505  -4.169 0.50       17161.  74.5  1042145578
      30076.664       166.39         -505  -3.838 1.95       17254.  74.5  1042145654
      30145.284       166.79         -490  -4.010 0.90       17362.  74.3  1042145722
      30217.344       167.20         -476  -3.873 1.20       17418.  74.3  1042145794
      30291.804       167.61         -544  -3.795 1.55       17540.  74.2  1042145869
      30361.584       168.02         -470  -3.878 0.85       17609.  74.3  1042145939
      30433.674       168.42         -506  -3.655 1.70       17700.  74.3  1042146011
      30503.424       168.82         -490  -3.758 0.95       17797.  74.2  1042146080
      30574.244       169.22         -507  -3.627 1.30       17868.  74.2  1042146151
      30646.284       169.62         -548  -3.589 1.35       17977.  74.2  1042146223
      30717.284       170.03         -496  -3.590 1.05       18052.  74.0  1042146294
      30790.554       170.43         -496  -3.469 1.50       18148.  74.1  1042146368
      30861.514       170.84         -507  -3.511 1.05       18239.  74.1  1042146439
      30934.724       171.24         -493  -3.395 1.40       18324.  74.1  1042146512
      31006.844       171.64         -463  -3.408 1.15       18422.  74.1  1042146584
      31078.924       172.04         -489  -3.348 1.25       18504.  74.0  1042146656
      31153.244       172.45         -493  -3.297 1.35       18604.  74.1  1042146730
      31225.384       172.85         -504  -3.284 1.20       18691.  73.9  1042146802
      31299.744       173.26         -494  -3.219 1.40       18786.  73.9  1042146877
      31372.894       173.66         -499  -3.220 1.15       18878.  73.7  1042146950
      31447.164       174.06         -501  -3.159 1.35       18969.  73.8  1042147024
      31522.684       174.47         -498  -3.153 1.20       19067.  73.6  1042147100
      31595.844       174.87         -503  -3.106 1.25       19157.  73.7  1042147173
      31672.544       175.28         -500  -3.075 1.30       19257.  73.8  1042147250
      31746.934       175.69         -499  -3.033 1.30       19349.  73.7  1042147324
      31824.794       176.11         -496  -3.017 1.25       19449.  73.8  1042147402
      31900.244       176.51         -498  -2.993 1.25       19543.  73.5  1042147477
      31976.804       176.91         -494  -2.966 1.30       19640.  73.6  1042147554
      32054.624       177.32         -495  -2.950 1.25       19738.  73.5  1042147632
      32131.284       177.73         -497  -2.918 1.30       19835.  73.4  1042147708
      32209.044       178.13         -491  -2.912 1.25       19934.  73.5  1042147786
      32285.574       178.54         -496  -2.883 1.35       20032.  73.3  1042147863
      32362.234       178.94         -504  -2.872 1.25       20128.  73.4  1042147939
      32441.214       179.35         -509  -2.850 1.30       20228.  73.4  1042148018
      32520.184       179.75         -510  -2.850 1.25       20328.  73.2  1042148097
      32596.794       180.16         -507  -2.814 1.30       20425.  73.3  1042148174
      32676.874       180.56         -502  -2.822 1.25       20527.  73.0  1042148254
      32754.634       180.97         -505  -2.791 1.35       20627.  73.1  1042148332
      32834.684       181.38         -507  -2.790 1.30       20729.  73.0  1042148412
      32913.734       181.78         -510  -2.786 1.25       20830.  73.0  1042148491
      32992.754       182.19         -509  -2.766 1.30       20930.  73.0  1042148570
      33074.034       182.59         -507  -2.768 1.30       21035.  73.1  1042148651
      33152.964       182.99         -503  -2.771 1.25       21137.  72.9  1042148730
      33231.894       183.41         -514  -2.746 1.30       21239.  73.0  1042148809
      33313.204       183.81         -505  -2.754 1.30       21344.  72.9  1042148890
      33392.214       184.21         -467  -2.744 1.30       21445.  72.8  1042148969
      33472.234       184.62         -495  -2.733 1.30       21548.  72.8  1042149049
      33554.664       185.02         -548  -2.747 1.30       21654.  72.8  1042149132
      33635.964       185.43         -531  -2.742 1.30       21758.  72.6  1042149213
      33713.804       185.84         -512  -2.718 1.35       21859.  72.7  1042149291
      33795.024       186.24         -489  -2.735 1.30       21964.  72.7  1042149372
      33877.414       186.66         -506  -2.721 1.30       22070.  72.5  1042149454
      33960.944       187.06         -540  -2.740 1.35       22178.  72.6  1042149538
      34041.054       187.47         -510  -2.733 1.30       22282.  72.6  1042149618
      34122.224       187.87         -487  -2.738 1.30       22387.  72.6  1042149699
      34202.334       188.27         -498  -2.732 1.30       22492.  72.4  1042149779
      34282.464       188.67         -504  -2.735 1.30       22596.  72.4  1042149860
      34363.704       189.08         -495  -2.740 1.30       22702.  72.3  1042149941
      34444.964       189.48         -509  -2.738 1.35       22809.  72.2  1042150022
      34525.084       189.89         -507  -2.737 1.35       22915.  72.4  1042150102
      34605.134       190.29         -507  -2.729 1.35       23020.  72.2  1042150182
      34685.104       190.69         -502  -2.729 1.30       23125.  72.2  1042150262
      34764.124       191.10         -507  -2.717 1.35       23229.  72.1  1042150341
      34842.974       191.50         -509  -2.706 1.35       23333.  72.1  1042150420
      34922.004       191.90         -509  -2.698 1.35       23440.  72.0  1042150499
      34998.724       192.31         -509  -2.676 1.40       23543.  72.1  1042150576
      35076.494       192.71         -507  -2.674 1.35       23649.  72.1  1042150654
      35155.394       193.11         -505  -2.661 1.35       23756.  72.0  1042150732
      35230.824       193.51         -505  -2.642 1.35       23857.  71.9  1042150808
      35308.594       193.91         -507  -2.621 1.40       23962.  71.8  1042150886
      35387.534       194.32         -514  -2.613 1.35       24069.  71.8  1042150965
      35465.324       194.72         -507  -2.605 1.30       24175.  71.7  1042151042
      35545.414       195.13         -505  -2.591 1.40       24284.  71.9  1042151122
      35623.274       195.53         -509  -2.583 1.40       24389.  71.6  1042151200
      35704.434       195.93         -510  -2.589 1.35       24500.  71.7  1042151281
      35783.414       196.34         -507  -2.575 1.35       24609.  71.6  1042151360
      35863.574       196.74         -507  -2.571 1.35       24720.  71.7  1042151441
      35943.644       197.15         -505  -2.559 1.40       24831.  71.7  1042151521
      36023.824       197.55         -509  -2.556 1.40       24941.  71.6  1042151601
      36103.894       197.96         -512  -2.556 1.35       25051.  71.4  1042151681
      36182.844       198.36         -504  -2.545 1.40       25160.  71.3  1042151760
      36261.844       198.76         -509  -2.547 1.35       25270.  71.2  1042151839
      36343.044       199.16         -507  -2.543 1.40       25382.  71.2  1042151920
      36420.794       199.57         -509  -2.534 1.40       25490.  71.2  1042151998
      36500.894       199.97         -507  -2.529 1.40       25602.  71.1  1042152078
      36582.154       200.37         -510  -2.531 1.40       25715.  71.0  1042152159
      36662.234       200.78         -505  -2.523 1.40       25826.  71.2  1042152239
      36743.414       201.19         -493  -2.518 1.40       25940.  70.9  1042152320
      36825.774       201.60         -505  -2.525 1.40       26054.  71.1  1042152403
      36905.934       202.01         -514  -2.510 1.45       26166.  70.9  1042152483
      36987.164       202.41         -522  -2.514 1.45       26279.  70.8  1042152564
      37066.124       202.81         -493  -2.508 1.40       26390.  71.0  1042152643
      37147.345       203.22         -512  -2.518 1.35       26504.  70.9  1042152724
      37227.384       203.62         -488  -2.507 1.40       26617.  70.7  1042152804
      37309.754       204.04         -510  -2.504 1.40       26733.  70.8  1042152887
      37392.154       204.45         -526  -2.507 1.40       26849.  70.7  1042152969
      37473.394       204.85         -473  -2.511 1.40       26964.  70.5  1042153050
      37554.595       205.26         -526  -2.494 1.50       27081.  70.6  1042153132
      37635.884       205.66         -512  -2.512 1.40       27197.  70.4  1042153213
      37715.934       206.07         -504  -2.500 1.45       27312.  70.4  1042153293
      37795.984       206.47         -507  -2.509 1.40       27426.  70.4  1042153373
      37877.294       206.87         -501  -2.513 1.40       27542.  70.4  1042153454
      37957.365       207.28         -509  -2.507 1.45       27657.  70.2  1042153534
      38037.514       207.68         -507  -2.506 1.45       27772.  70.2  1042153615
      38119.884       208.08         -510  -2.518 1.40       27889.  70.2  1042153697
      38200.034       208.49         -501  -2.508 1.45       28005.  70.4  1042153777
      38281.264       208.89         -507  -2.509 1.45       28121.  70.3  1042153858
      38362.484       209.30         -510  -2.513 1.45       28238.  70.2  1042153940
      38443.664       209.70         -507  -2.517 1.40       28353.  70.1  1042154021
      38524.865       210.11         -505  -2.511 1.45       28469.  70.0  1042154102
      38604.904       210.52         -512  -2.501 1.45       28584.  69.9  1042154182
      38686.094       210.92         -507  -2.509 1.45       28701.  70.2  1042154263
      38767.284       211.32         -508  -2.514 1.40       28819.  70.0  1042154344
      38846.164       211.72         -512  -2.500 1.50       28933.  69.9  1042154423
      38927.364       212.13         -513  -2.509 1.45       29051.  69.7  1042154504
      39006.274       212.53         -510  -2.496 1.50       29164.  69.9  1042154583
      39088.634       212.93         -514  -2.508 1.45       29285.  69.8  1042154666
      39168.804       213.34         -512  -2.491 1.50       29403.  69.8  1042154746
      39251.174       213.74         -517  -2.503 1.50       29526.  69.7  1042154828
      39331.234       214.14         -510  -2.510 1.45       29644.  69.7  1042154908
      39411.254       214.55         -516  -2.512 1.45       29763.  69.6  1042154988
      39492.484       214.95         -519  -2.512 1.50       29885.  69.5  1042155070
      39572.524       215.35         -515  -2.507 1.55       30003.  69.4  1042155150
      39652.564       215.75         -516  -2.512 1.50       30124.  69.6  1042155230
      39734.874       216.15         -515  -2.523 1.50       30246.  69.5  1042155312
      39814.924       216.55         -517  -2.522 1.50       30366.  69.4  1042155392
      39897.294       216.96         -522  -2.522 1.50       30489.  69.4  1042155474
      39978.534       217.37         -519  -2.517 1.55       30613.  69.3  1042155556
      40059.714       217.77         -519  -2.528 1.50       30737.  69.1  1042155637
      40142.064       218.18         -520  -2.529 1.50       30861.  69.2  1042155719
      40224.434       218.58         -512  -2.536 1.50       30986.  69.2  1042155801
      40304.494       218.99         -524  -2.528 1.55       31107.  69.1  1042155882
      40386.864       219.39         -517  -2.539 1.55       31233.  69.1  1042155964
      40469.214       219.79         -515  -2.548 1.55       31358.  69.0  1042156046
      40549.254       220.19         -519  -2.544 1.55       31481.  68.8  1042156126
      40630.594       220.60         -514  -2.542 1.55       31606.  68.7  1042156208
      40713.004       221.00         -520  -2.551 1.55       31732.  68.9  1042156290
      40793.064       221.40         -520  -2.553 1.55       31857.  68.7  1042156370
      40873.114       221.81         -515  -2.554 1.55       31980.  68.7  1042156450
      40955.544       222.22         -520  -2.552 1.60       32108.  68.8  1042156533
      41036.714       222.62         -519  -2.551 1.60       32235.  68.6  1042156614
      41119.034       223.03         -524  -2.561 1.55       32364.  68.8  1042156696
      41200.214       223.43         -519  -2.569 1.55       32490.  68.5  1042156777
      41281.384       223.84         -524  -2.563 1.60       32617.  68.5  1042156858
      41362.664       224.24         -520  -2.563 1.60       32744.  68.4  1042156940
      41443.864       224.64         -513  -2.578 1.55       32873.  68.3  1042157021
      41525.074       225.04         -517  -2.582 1.60       33001.  68.2  1042157102
      41605.174       225.44         -514  -2.575 1.60       33127.  68.1  1042157182
      41686.344       225.85         -514  -2.585 1.55       33255.  68.2  1042157263
      41766.424       226.25         -515  -2.582 1.55       33382.  68.0  1042157343
      41848.784       226.66         -515  -2.577 1.65       33514.  68.1  1042157426
      41930.044       227.06         -512  -2.584 1.60       33645.  68.0  1042157507
      42008.964       227.46         -526  -2.585 1.60       33772.  67.9  1042157586
      42090.454       227.86         -512  -2.587 1.65       33902.  67.8  1042157667
      42171.824       228.27         -514  -2.587 1.60       34032.  68.0  1042157749
      42253.044       228.67         -512  -2.589 1.60       34163.  67.7  1042157830
      42334.404       229.07         -507  -2.591 1.65       34294.  67.7  1042157911
      42414.484       229.48         -511  -2.584 1.65       34423.  67.7  1042157992
      42496.814       229.88         -513  -2.594 1.65       34557.  67.7  1042158074
      42577.974       230.29         -512  -2.599 1.60       34689.  67.5  1042158155
      42660.334       230.70         -513  -2.593 1.65       34822.  67.5  1042158237
      42742.724       231.11         -509  -2.602 1.65       34957.  67.5  1042158320
      42823.904       231.51         -512  -2.598 1.65       35090.  67.5  1042158401
      42905.094       231.92         -509  -2.609 1.60       35222.  67.6  1042158482
      42987.404       232.32         -508  -2.605 1.70       35357.  67.3  1042158564
      43068.544       232.73         -509  -2.610 1.65       35491.  67.3  1042158646
      43149.724       233.13         -508  -2.615 1.65       35625.  67.2  1042158727
      43229.874       233.53         -509  -2.614 1.65       35758.  67.2  1042158807
      43311.104       233.93         -512  -2.615 1.65       35893.  67.2  1042158888
      43392.294       234.34         -511  -2.614 1.65       36028.  67.2  1042158969
      43474.724       234.75         -509  -2.616 1.65       36164.  67.1  1042159052
      43556.014       235.16         -507  -2.613 1.70       36301.  67.1  1042159133
      43638.324       235.57         -509  -2.622 1.65       36440.  67.0  1042159215
      43718.324       235.97         -507  -2.622 1.65       36574.  67.0  1042159295
      43798.404       236.37         -507  -2.617 1.70       36708.  67.0  1042159375
      43879.614       236.77         -507  -2.625 1.65       36844.  66.7  1042159457
      43960.904       237.18         -507  -2.618 1.70       36983.  66.9  1042159538
      44042.094       237.58         -501  -2.624 1.70       37121.  66.7  1042159619
      44122.194       237.99         -501  -2.614 1.70       37257.  66.6  1042159699
      44203.514       238.40         -507  -2.613 1.70       37395.  66.6  1042159781
      44284.704       238.80         -501  -2.616 1.75       37533.  66.6  1042159862
      44364.844       239.20         -487  -2.615 1.70       37670.  66.5  1042159942
      44446.034       239.61         -499  -2.613 1.75       37809.  66.3  1042160023
      44527.234       240.01         -487  -2.620 1.70       37950.  66.5  1042160104
      44607.294       240.42         -481  -2.620 1.70       38088.  66.3  1042160184
      44687.434       240.82         -506  -2.613 1.75       38226.  66.2  1042160264
      44768.674       241.22         -504  -2.621 1.70       38368.  66.4  1042160346
      44849.874       241.62         -514  -2.614 1.75       38508.  66.3  1042160427
      44929.924       242.03         -502  -2.618 1.75       38647.  66.0  1042160507
      45011.174       242.43         -493  -2.619 1.75       38790.  66.2  1042160588
      45092.364       242.84         -510  -2.624 1.75       38931.  66.0  1042160669
      45173.664       243.25         -493  -2.610 1.80       39075.  66.1  1042160751
      45254.834       243.65         -494  -2.617 1.75       39217.  66.0  1042160832
      45334.854       244.05         -493  -2.614 1.80       39359.  65.9  1042160912
      45414.854       244.46         -493  -2.615 1.75       39499.  66.0  1042160992
      45496.064       244.86         -493  -2.614 1.75       39643.  65.9  1042161073
      45576.174       245.26         -496  -2.612 1.75       39785.  65.8  1042161153
      45656.304       245.67         -496  -2.608 1.80       39926.  65.8  1042161233
      45737.504       246.07         -496  -2.608 1.80       40071.  65.7  1042161315
      45817.554       246.47         -496  -2.611 1.80       40215.  65.6  1042161395
      45897.614       246.87         -496  -2.604 1.80       40357.  65.4  1042161475
      45976.504       247.28         -490  -2.606 1.75       40498.  65.6  1042161554
      46058.844       247.68         -500  -2.611 1.75       40647.  65.3  1042161636
      46137.814       248.08         -499  -2.601 1.85       40789.  65.3  1042161715
      46219.014       248.48         -495  -2.605 1.80       40936.  65.1  1042161796
      46299.034       248.89         -501  -2.601 1.80       41080.  65.2  1042161876
      46380.184       249.29         -501  -2.611 1.75       41227.  65.2  1042161957
      46460.114       249.69         -500  -2.601 1.80       41371.  65.0  1042162037
      46539.074       250.09         -501  -2.595 1.85       41515.  65.0  1042162116
      46620.324       250.50         -498  -2.594 1.85       41663.  65.0  1042162197
      46700.364       250.90         -496  -2.589 1.85       41811.  64.9  1042162277
      46781.614       251.31         -502  -2.591 1.85       41959.  64.8  1042162359
      46861.674       251.71         -501  -2.589 1.85       42106.  64.7  1042162439
      46941.664       252.11         -496  -2.584 1.90       42255.  64.7  1042162519
      47022.804       252.52         -502  -2.594 1.80       42404.  64.6  1042162600
      47103.984       252.92         -498  -2.596 1.80       42554.  64.6  1042162681
      47184.034       253.33         -504  -2.588 1.85       42701.  64.3  1042162761
      47264.124       253.73         -494  -2.590 1.85       42850.  64.6  1042162841
      47344.184       254.13         -537  -2.585 1.95       42999.  64.6  1042162921
      47425.534       254.53         -531  -2.585 1.90       43150.  64.4  1042163003
      47504.414       254.93         -520  -2.577 1.90       43300.  64.2  1042163081
      47584.454       255.33         -482  -2.583 1.85       43449.  64.2  1042163161
      47664.524       255.74         -505  -2.582 1.85       43600.  64.4  1042163242
      47745.724       256.14         -510  -2.582 1.85       43752.  64.0  1042163323
      47826.944       256.55         -501  -2.575 1.95       43905.  64.1  1042163404
      47907.084       256.96         -493  -2.572 1.90       44057.  64.0  1042163484
      47989.454       257.36         -520  -2.579 1.90       44214.  63.8  1042163566
      48070.714       257.77         -504  -2.583 1.85       44367.  63.9  1042163648
      48150.744       258.18         -502  -2.574 1.90       44520.  64.0  1042163728
      48233.024       258.58         -509  -2.579 1.90       44677.  63.7  1042163810
      48314.254       258.99         -510  -2.571 1.95       44834.  63.6  1042163891
      48394.374       259.39         -504  -2.569 1.95       44987.  63.7  1042163971
      48475.684       259.80         -524  -2.565 1.95       45145.  63.6  1042164053
      48558.074       260.21         -520  -2.566 1.95       45303.  63.5  1042164135
      48638.194       260.62         -514  -2.561 1.95       45458.  63.5  1042164215
      48720.584       261.03         -517  -2.569 1.90       45617.  63.4  1042164298
      48801.774       261.43         -514  -2.575 1.90       45774.  63.3  1042164379
      48881.794       261.83         -514  -2.567 1.95       45930.  63.4  1042164459
      48963.004       262.24         -524  -2.565 2.00       46089.  63.3  1042164540
      49043.084       262.65         -521  -2.555 2.00       46245.  63.2  1042164620
      49125.544       263.05         -528  -2.568 2.00       46407.  62.9  1042164703
      49205.734       263.46         -525  -2.563 2.00       46564.  63.1  1042164783
      49286.974       263.87         -527  -2.566 1.95       46724.  63.1  1042164864
      49368.304       264.27         -527  -2.569 1.95       46884.  62.9  1042164945
      49448.374       264.67         -534  -2.564 1.95       47042.  63.1  1042165025
      49529.594       265.07         -531  -2.569 2.00       47205.  62.9  1042165107
      49610.814       265.49         -537  -2.567 2.00       47365.  62.8  1042165188
      49692.244       265.89         -547  -2.569 2.05       47527.  62.5  1042165269
      49772.694       266.29         -537  -2.566 2.00       47686.  62.5  1042165350
      49852.964       266.69         -540  -2.567 2.00       47847.  62.6  1042165430
      49933.054       267.10         -531  -2.556 2.05       48007.  62.6  1042165510
      50014.284       267.50         -533  -2.564 2.05       48172.  62.2  1042165591
      50094.494       267.90         -540  -2.567 2.00       48335.  62.5  1042165672
      50174.594       268.30         -548  -2.559 2.05       48499.  62.4  1042165752
      50255.854       268.71         -548  -2.561 2.05       48664.  62.3  1042165833
      50334.794       269.11         -540  -2.558 2.05       48823.  62.2  1042165912
      50417.274       269.52         -546  -2.557 2.05       48991.  62.1  1042165994
      50497.434       269.92         -524  -2.559 2.05       49154.  61.9  1042166074
      50577.484       270.32         -533  -2.560 2.05       49317.  61.7  1042166155
      50658.764       270.72         -548  -2.568 2.00       49483.  61.9  1042166236
      50740.064       271.13         -535  -2.562 2.10       49650.  61.7  1042166317
      50820.164       271.53         -540  -2.568 2.05       49814.  61.7  1042166397
      50901.504       271.93         -554  -2.568 2.05       49984.  61.5  1042166479
      50982.774       272.34         -554  -2.562 2.10       50154.  61.6  1042166560
      51065.184       272.75         -540  -2.572 2.10       50326.  61.4  1042166642
      51144.114       273.15         -546  -2.561 2.10       50493.  61.5  1042166721
      51227.664       273.56         -546  -2.565 2.15       50667.  61.2  1042166805
      51308.944       273.97         -547  -2.574 2.10       50836.  61.2  1042166886
      51389.114       274.37         -546  -2.567 2.15       51004.  61.2  1042166966
      51470.384       274.77         -548  -2.571 2.15       51175.  61.1  1042167047
      51550.504       275.17         -559  -2.577 2.05       51344.  61.1  1042167128
      51631.845       275.58         -554  -2.573 2.15       51516.  60.9  1042167209
      51712.064       275.98         -561  -2.575 2.10       51686.  60.9  1042167289
      51793.314       276.38         -537  -2.579 2.10       51859.  60.9  1042167370
      51873.474       276.78         -561  -2.580 2.10       52029.  60.9  1042167451
      51954.685       277.19         -561  -2.578 2.15       52202.  60.7  1042167532
      52034.804       277.59         -567  -2.573 2.20       52373.  60.8  1042167612
      52117.214       278.00         -565  -2.577 2.20       52551.  60.6  1042167694
      52197.284       278.41         -563  -2.573 2.10       52722.  60.4  1042167774
      52280.804       278.82         -535  -2.580 2.15       52902.  60.5  1042167858
      52359.744       279.22         -569  -2.579 2.10       53073.  60.3  1042167937
      52440.934       279.62         -569  -2.572 2.20       53248.  60.2  1042168018
      52521.064       280.03         -567  -2.573 2.25       53423.  60.1  1042168098
      52601.234       280.43         -565  -2.568 2.20       53597.  60.3  1042168178
      52681.254       280.83         -573  -2.567 2.25       53772.  60.0  1042168258
      52761.304       281.23         -577  -2.558 2.35       53950.  60.0  1042168338
      52841.385       281.63         -569  -2.567 2.20       54126.  60.0  1042168418
      52921.534       282.04         -573  -2.566 2.25       54303.  59.9  1042168499
      53001.664       282.44         -577  -2.561 2.20       54479.  59.7  1042168579
      53082.844       282.85         -581  -2.562 2.20       54659.  59.6  1042168660
      53162.974       283.25         -575  -2.557 2.25       54839.  59.7  1042168740
      53241.984       283.65         -575  -2.552 2.20       55016.  59.5  1042168819
      53324.414       284.06         -585  -2.551 2.30       55200.  59.4  1042168901
      53403.334       284.46         -581  -2.549 2.20       55377.  59.4  1042168980
      53484.624       284.87         -590  -2.545 2.25       55560.  59.3  1042169062
      53564.694       285.28         -587  -2.532 2.25       55740.  59.4  1042169142
      53644.864       285.68         -583  -2.539 2.25       55924.  59.2  1042169222
      53723.834       286.08         -596  -2.531 2.25       56103.  59.2  1042169301
      53803.974       286.49         -583  -2.524 2.30       56288.  59.2  1042169381
      53882.944       286.89         -592  -2.517 2.30       56469.  59.0  1042169460
      53963.014       287.29         -590  -2.521 2.30       56652.  59.0  1042169540
      54040.804       287.69         -598  -2.502 2.35       56834.  58.8  1042169618
      54123.144       288.11         -601  -2.503 2.35       57023.  58.8  1042169700
      54203.254       288.51         -592  -2.498 2.35       57210.  58.5  1042169780
      54283.364       288.92         -594  -2.497 2.30       57395.  58.3  1042169860
      54363.474       289.32         -587  -2.497 2.30       57581.  58.5  1042169941
      54441.344       289.72         -588  -2.484 2.25       57762.  58.2  1042170018
      54497.394       290.01         -585  -2.475 2.25       57892.  58.3  1042170074
