[FileHeader]
Idn=THEX 1.0 for LINUX
Insert=A
Cell=C
p_Cell=300mB(RT)          
p_Heater=2E-2 mB (4K)       
T_Slope=0.000000
H_Field=0.000000
K0=6.048000
CalFile=NULL
SampleSensor=GaAs9356
HeaterSensor=9243
L0=1.740000
SampleID=YbGaGe E. Bauer AgSt=1.57mm erste Messung
;
StartTime=Wed May 26 18:22:53 2004
EndTime=Thu May 27 01:54:24 2004
NoofCols=8
DataPoints=470
ColID1=t [s]
ColID2=Ts [K]
ColID3=Loss [GOhm]
ColID4=Ts-Th [K]
ColID5=PHeat [W]
ColID6=TotHeat [Ws]
ColID7=He-Level [%]
ColID8=Date [s]
#XMeas: CreationTime=Thu May 27 01:54:24 2004
@EOH
      1.1160000       4.6183      -302.68   0.190 0.00       0.0000  87.1  1085588783
      206.27600       4.8220       -303.1   0.208 0.00       0.0000  87.0  1085588989
      264.01600       5.0244       -302.8   0.237 0.00       0.0000  87.1  1085589046
      321.69600       5.2250       -302.9   0.266 0.00       0.0000  87.0  1085589104
      379.37600       5.4291       -302.7   0.297 0.00       0.0000  87.0  1085589162
      435.93600       5.6317       -302.8   0.329 0.00       0.0000  87.0  1085589218
      491.23700       5.8333       -303.4   0.366 0.00       0.0000  86.9  1085589274
      547.82600       6.0369       -303.4   0.401 0.05       2.2570  86.9  1085589330
      601.97700       6.2389       -303.4   0.439 0.05       4.9646  87.0  1085589384
      657.84600       6.4426       -303.4   0.477 0.05       7.7580  86.8  1085589440
      713.09600       6.6463       -303.3   0.514 0.05       10.520  86.8  1085589495
      768.39700       6.8496       -303.5   0.552 0.05       13.286  86.8  1085589551
      823.82700       7.0532       -303.7   0.589 0.05       16.057  86.8  1085589606
      879.13800       7.2556       -303.7   0.626 0.05       18.823  86.8  1085589661
      934.44600       7.4579       -304.1   0.662 0.05       21.588  86.7  1085589717
      989.75600       7.6599       -303.8   0.698 0.05       24.354  86.8  1085589772
      1044.9960       7.8612       -303.8   0.733 0.10       28.359  86.7  1085589827
      1100.2970       8.0630       -304.1   0.769 0.10       33.889  86.8  1085589883
      1155.6060       8.2641         -304   0.805 0.10       39.420  86.7  1085589938
      1210.9070       8.4645       -303.8   0.840 0.10       44.950  86.6  1085589993
      1267.4670       8.6686       -303.8   0.874 0.10       50.606  86.6  1085590050
      1324.0260       8.8717       -303.6   0.907 0.10       56.262  86.5  1085590106
      1380.5770       9.0739       -304.1   0.939 0.10       61.917  86.6  1085590163
      1437.1360       9.2753       -303.2   0.971 0.10       67.573  86.5  1085590219
      1494.8770       9.4795       -303.2   1.002 0.10       73.347  86.6  1085590277
      1552.5670       9.6826       -303.7   1.032 0.15       81.823  86.6  1085590335
      1610.2460       9.8850       -303.2   1.062 0.15       90.475  86.5  1085590393
      1669.1070       10.089       -303.2   1.090 0.15       99.304  86.5  1085590451
      1726.7870       10.291         -303   1.119 0.15       107.96  86.4  1085590509
      1784.4760       10.492       -303.6   1.146 0.15       116.61  86.5  1085590567
      1843.3370       10.696         -304   1.174 0.15       125.44  86.3  1085590626
      1902.1460       10.899       -303.6   1.200 0.15       134.26  86.4  1085590684
      1961.0160       11.102       -303.6   1.227 0.20       143.21  86.5  1085590743
      2019.8860       11.305       -304.9   1.253 0.20       154.59  86.2  1085590802
      2078.7560       11.508       -305.1   1.279 0.20       166.37  86.3  1085590861
      2137.6970       11.710         -305   1.305 0.20       178.15  86.2  1085590920
      2196.6160       11.912       -304.5   1.330 0.20       189.94  86.2  1085590979
      2255.4860       12.113       -304.7   1.355 0.20       201.71  86.1  1085591038
      2314.4160       12.317       -304.7   1.381 0.20       213.50  86.2  1085591097
      2373.2860       12.519       -304.5   1.407 0.20       225.27  86.2  1085591156
      2432.1470       12.721       -304.4   1.433 0.25       238.56  86.0  1085591214
      2491.0160       12.922       -304.2   1.457 0.25       252.95  86.1  1085591273
      2549.8970       13.124       -303.8   1.482 0.25       267.67  85.9  1085591332
      2608.8160       13.326       -303.7   1.508 0.25       282.40  85.9  1085591391
      2667.6860       13.528       -303.9   1.533 0.25       297.12  85.9  1085591450
      2726.5670       13.730       -303.6   1.558 0.25       311.84  85.8  1085591509
      2785.4260       13.932       -303.9   1.583 0.25       326.55  85.8  1085591568
      2844.3560       14.135         -304   1.610 0.30       341.80  85.8  1085591627
      2903.2260       14.337       -303.8   1.635 0.30       359.13  85.7  1085591686
      2962.0870       14.539       -304.4   1.661 0.30       376.78  85.8  1085591744
      3020.9770       14.741       -304.4   1.686 0.30       394.45  85.7  1085591803
      3079.8870       14.944       -304.2   1.713 0.30       412.12  85.7  1085591862
      3138.7570       15.146       -304.4   1.738 0.30       429.79  85.5  1085591921
      3197.6260       15.349       -304.3   1.765 0.30       447.45  85.7  1085591980
      3256.4960       15.551       -304.5   1.791 0.35       466.03  85.6  1085592039
      3315.3660       15.755       -304.5   1.818 0.35       486.58  85.6  1085592098
      3373.0460       15.956       -304.2   1.846 0.35       506.77  85.6  1085592155
      3431.9160       16.159       -304.5   1.872 0.35       527.37  85.6  1085592214
      3490.7860       16.362       -304.3   1.898 0.35       547.97  85.5  1085592273
      3549.6470       16.564       -304.6   1.923 0.35       568.58  85.6  1085592332
      3608.5170       16.766       -304.5   1.949 0.35       589.18  85.4  1085592391
      3667.3860       16.969       -304.7   1.976 0.40       611.30  85.3  1085592450
      3726.2560       17.171       -305.1   2.001 0.40       634.52  85.3  1085592509
      3785.1260       17.373       -304.9   2.027 0.40       658.07  85.3  1085592567
      3843.9960       17.576       -305.2   2.052 0.40       681.62  85.3  1085592626
      3902.8670       17.778       -305.2   2.078 0.40       705.17  85.1  1085592685
      3961.7270       17.981       -304.3   2.105 0.40       728.71  85.1  1085592744
      4020.5960       18.183       -303.6   2.130 0.40       752.26  85.2  1085592803
      4079.4060       18.385       -303.8   2.156 0.45       778.19  85.1  1085592862
      4138.2760       18.588         -304   2.182 0.45       804.68  85.1  1085592921
      4197.1370       18.790       -303.7   2.208 0.45       831.17  85.0  1085592979
      4256.0760       18.993       -303.8   2.233 0.45       857.69  84.8  1085593038
      4314.9370       19.195       -303.7   2.259 0.45       884.18  84.8  1085593097
      4373.8070       19.397       -304.8   2.284 0.45       910.67  84.7  1085593156
      4432.6770       19.600       -305.1   2.311 0.50       937.52  84.8  1085593215
      4491.6170       19.803       -304.9   2.337 0.50       966.99  84.7  1085593274
      4550.5370       20.005         -305   2.362 0.50       996.45  84.7  1085593333
      4609.4060       20.208       -305.5   2.389 0.50       1025.9  84.7  1085593392
      4668.2760       20.410       -305.4   2.414 0.50       1055.3  84.5  1085593451
      4727.1460       20.612       -305.4   2.440 0.50       1084.7  84.6  1085593509
      4786.0160       20.815       -305.5   2.466 0.50       1114.2  84.5  1085593568
      4844.8860       21.017       -305.1   2.491 0.55       1145.6  84.5  1085593627
      4903.7470       21.219       -304.9   2.517 0.55       1178.0  84.5  1085593686
      4962.5560       21.420       -305.2   2.542 0.55       1210.3  84.5  1085593745
      5021.4860       21.622       -305.2   2.567 0.55       1242.7  84.4  1085593804
      5080.3560       21.823       -305.5   2.591 0.55       1275.1  84.2  1085593863
      5139.2260       22.024       -305.2   2.616 0.55       1307.5  84.1  1085593922
      5198.0960       22.226       -305.1   2.641 0.60       1340.7  84.2  1085593980
      5256.9570       22.427       -305.5   2.665 0.60       1375.7  84.1  1085594039
      5315.8270       22.629       -305.3   2.691 0.60       1411.0  84.0  1085594098
      5374.6960       22.831       -305.3   2.716 0.60       1446.3  84.0  1085594157
      5433.5660       23.032       -305.1   2.741 0.60       1481.6  84.2  1085594216
      5492.4360       23.234       -305.4   2.766 0.60       1516.9  83.9  1085594275
      5551.3060       23.435       -305.6   2.790 0.60       1552.3  83.9  1085594334
      5610.2360       23.637       -305.9   2.816 0.65       1590.5  83.9  1085594393
      5669.1060       23.839       -305.9   2.841 0.65       1628.7  83.9  1085594451
      5727.9670       24.041       -305.9   2.866 0.65       1667.0  83.7  1085594510
      5786.8370       24.242       -305.7   2.891 0.65       1705.2  83.6  1085594569
      5845.7060       24.444       -305.4   2.916 0.65       1743.5  83.6  1085594628
      5904.6370       24.646       -305.5   2.942 0.65       1781.8  83.6  1085594687
      5963.5070       24.847       -304.9   2.966 0.70       1822.7  83.6  1085594746
      6022.3760       25.049         -305   2.992 0.70       1863.6  83.5  1085594805
      6081.2460       25.251       -305.1   3.017 0.70       1904.4  83.4  1085594864
      6140.1160       25.454       -305.2   3.043 0.70       1945.7  83.3  1085594922
      6198.9860       25.657       -305.4   3.069 0.70       1986.9  83.4  1085594981
      6257.7860       25.858       -304.8   3.094 0.70       2028.0  83.4  1085595040
      6316.6560       26.060       -305.2   3.119 0.75       2071.3  83.1  1085595099
      6375.5260       26.262       -305.3   3.145 0.75       2115.1  83.2  1085595158
      6434.3960       26.464       -305.1   3.170 0.75       2158.9  83.1  1085595217
      6493.3260       26.666       -305.2   3.195 0.75       2203.1  83.0  1085595276
      6552.1960       26.868       -305.2   3.221 0.75       2247.3  83.1  1085595335
      6611.1260       27.070       -305.1   3.246 0.75       2291.5  82.9  1085595393
      6669.9270       27.273       -304.7   3.272 0.80       2337.3  82.8  1085595452
      6728.7360       27.475       -304.9   3.298 0.80       2384.3  82.9  1085595511
      6787.6060       27.679       -305.2   3.326 0.80       2431.1  82.9  1085595570
      6846.4760       27.883       -304.2   3.353 0.80       2478.2  82.9  1085595629
      6905.3370       28.087       -304.3   3.380 0.80       2525.3  82.7  1085595688
      6964.2070       28.290       -304.1   3.407 0.80       2572.3  82.5  1085595747
      7023.0170       28.492       -304.1   3.432 0.85       2620.3  82.6  1085595805
      7081.8860       28.693       -304.1   3.456 0.85       2670.3  82.6  1085595864
      7140.7560       28.894       -304.1   3.481 0.85       2720.4  82.4  1085595923
      7199.6170       29.094         -304   3.511 0.85       2770.1  82.3  1085595982
      7257.4260       29.298       -304.4   3.535 0.85       2819.2  82.4  1085596040
      7313.9170       29.498       -304.5   3.567 0.85       2867.2  82.4  1085596096
      7370.4160       29.701       -304.7   3.601 0.90       2917.7  82.2  1085596153
      7424.5360       29.901       -304.3   3.639 0.90       2966.1  82.2  1085596207
      7477.4660       30.102       -304.4   3.680 0.90       3013.4  82.1  1085596260
      7530.3960       30.305       -304.1   3.723 0.90       3061.1  82.2  1085596313
      7584.5370       30.508       -304.5   3.761 0.90       3109.8  82.0  1085596367
      7641.0760       30.709       -304.7   3.791 0.90       3160.7  82.0  1085596423
      7702.3160       30.910       -304.7   3.808 0.90       3215.8  81.9  1085596485
      7770.6860       31.114       -304.2   3.807 0.90       3277.3  81.9  1085596553
      7844.9860       31.316       -304.6   3.788 0.90       3344.2  81.8  1085596627
      7921.6660       31.516       -305.1   3.760 0.95       3417.0  81.6  1085596704
      7995.9670       31.718       -305.1   3.747 0.95       3487.6  81.6  1085596778
      8058.3360       31.923       -304.7   3.830 1.05       3549.4  81.7  1085596841
      8094.6460       32.132       -304.4   3.821 1.05       3592.3  81.7  1085596877
      8121.4560       32.340       -304.7   3.942 1.00       3619.5  81.4  1085596904
      8150.6370       32.547       -304.7   4.069 1.00       3648.7  81.5  1085596933
      8184.5760       32.753       -304.7   4.180 1.00       3682.6  81.6  1085596967
      8225.6360       32.956       -304.4   4.268 1.00       3723.7  81.4  1085597008
      8277.3760       33.156       -304.6   4.320 1.00       3775.4  81.4  1085597060
      8344.6170       33.357       -304.5   4.324 1.00       3842.7  81.2  1085597127
      8429.6070       33.559       -304.5   4.277 1.00       3927.3  81.2  1085597212
      8518.1660       33.760       -304.4   4.221 1.05       4016.2  80.9  1085597301
      8592.4660       33.962       -304.3   4.207 1.05       4093.9  81.0  1085597375
      8652.5260       34.166       -304.7   4.220 1.05       4157.0  80.8  1085597435
      8707.8270       34.369       -304.1   4.253 1.05       4215.0  80.8  1085597490
      8763.1360       34.571       -303.8   4.289 1.05       4273.1  80.8  1085597545
      8819.6270       34.772         -303   4.321 1.10       4333.2  80.6  1085597602
      8877.3160       34.973         -303   4.350 1.10       4396.7  80.6  1085597660
      8936.1770       35.175       -303.4   4.376 1.10       4461.1  80.4  1085597719
      8993.8570       35.375       -303.1   4.404 1.10       4524.2  80.5  1085597776
      9051.5460       35.577       -302.9   4.432 1.10       4587.6  80.4  1085597834
      9108.0360       35.778       -302.7   4.463 1.10       4649.8  80.2  1085597890
      9165.7160       35.982       -302.7   4.494 1.15       4714.4  80.2  1085597948
      9222.2070       36.182       -302.6   4.525 1.15       4779.3  80.2  1085598005
      9279.8870       36.386       -302.3   4.556 1.15       4845.7  80.2  1085598062
      9337.5760       36.590       -302.9   4.587 1.15       4912.0  80.0  1085598120
      9395.2560       36.793       -302.7   4.616 1.15       4978.3  80.0  1085598178
      9451.8070       36.994       -302.3   4.648 1.15       5043.4  79.9  1085598234
      9508.2370       37.194       -302.3   4.679 1.20       5108.4  79.8  1085598291
      9564.7360       37.395       -301.9   4.710 1.20       5175.8  79.8  1085598347
      9621.2270       37.598       -302.2   4.744 1.20       5243.6  79.8  1085598404
      9677.7260       37.800       -301.8   4.781 1.20       5311.4  79.7  1085598460
      9733.0270       38.000       -301.9   4.810 1.20       5377.8  79.7  1085598515
      9788.2760       38.201       -302.2   4.845 1.20       5444.1  79.4  1085598571
      9843.5770       38.402       -302.6   4.881 1.20       5510.5  79.6  1085598626
      9900.0760       38.607         -303   4.917 1.25       5581.1  79.5  1085598682
      9956.5660       38.812       -303.4   4.953 1.25       5651.7  79.3  1085598739
      10011.936       39.013       -303.7   4.987 1.25       5720.6  79.2  1085598794
      10067.246       39.215       -303.6   5.023 1.25       5789.4  79.3  1085598850
      10122.557       39.417       -303.7   5.060 1.25       5858.5  79.2  1085598905
      10177.857       39.620         -304   5.097 1.30       5927.8  79.1  1085598960
      10233.226       39.823         -304   5.134 1.30       5999.3  79.1  1085599016
      10287.347       40.024       -304.2   5.172 1.30       6069.7  79.2  1085599070
      10341.466       40.225       -304.2   5.211 1.30       6140.1  79.0  1085599124
      10395.577       40.426       -304.1   5.250 1.30       6210.1  78.8  1085599178
      10449.697       40.629         -303   5.290 1.30       6280.4  78.8  1085599232
      10503.817       40.833       -302.6   5.332 1.35       6351.3  78.7  1085599286
      10556.747       41.034       -305.3   5.374 1.35       6422.3  78.7  1085599339
      10609.686       41.237       -303.8   5.419 1.35       6493.5  78.5  1085599392
      10662.556       41.441       -303.8   5.464 1.35       6564.8  78.6  1085599445
      10714.296       41.643       -303.7   5.509 1.35       6634.7  78.2  1085599497
      10766.037       41.845       -303.5   5.556 1.35       6704.5  78.3  1085599548
      10817.846       42.046       -303.4   5.601 1.35       6774.5  78.3  1085599600
      10870.777       42.250       -301.6   5.647 1.40       6848.1  78.1  1085599653
      10922.586       42.452       -299.1   5.691 1.40       6920.6  78.0  1085599705
      10974.327       42.653       -298.8   5.737 1.40       6993.0  78.1  1085599757
      11027.266       42.855       -298.9   5.781 1.40       7066.8  78.1  1085599810
      11081.377       43.057       -298.8   5.821 1.40       7142.2  77.8  1085599864
      11135.497       43.257       -298.8   5.860 1.40       7218.0  77.7  1085599918
      11190.867       43.461       -298.8   5.899 1.40       7295.5  77.7  1085599973
      11246.176       43.664       -299.1   5.936 1.45       7374.7  77.5  1085600029
      11300.417       43.865       -301.6   5.975 1.45       7453.0  77.5  1085600083
      11354.536       44.068         -302   6.015 1.45       7531.1  77.4  1085600137
      11407.467       44.269       -301.8   6.057 1.45       7607.5  77.4  1085600190
      11461.587       44.472       -301.9   6.096 1.45       7685.7  77.3  1085600244
      11514.517       44.672         -302   6.137 1.45       7762.4  77.3  1085600297
      11568.637       44.876       -302.2   6.179 1.45       7840.9  77.2  1085600351
      11622.696       45.077       -302.2   6.217 1.50       7921.1  77.0  1085600405
      11676.816       45.279       -302.6   6.258 1.50       8001.9  77.0  1085600459
      11731.186       45.480       -302.6   6.299 1.50       8083.5  77.0  1085600514
      11785.306       45.683       -302.6   6.341 1.50       8164.3  76.9  1085600568
      11838.236       45.885       -302.7   6.386 1.55       8244.7  76.8  1085600621
      11889.977       46.087       -302.5   6.434 1.55       8324.9  76.5  1085600672
      11939.347       46.287       -302.4   6.485 1.55       8401.1  76.6  1085600722
      11986.346       46.489       -302.7   6.543 1.55       8473.9  76.6  1085600769
      12034.526       46.690       -303.2   6.597 1.55       8548.6  76.6  1085600817
      12081.517       46.893       -302.7   6.656 1.55       8621.4  76.4  1085600864
      12129.706       47.096       -302.7   6.712 1.55       8696.1  76.3  1085600912
      12177.886       47.302       -302.6   6.775 1.55       8770.8  76.2  1085600960
      12228.446       47.502       -302.7   6.822 1.55       8849.6  76.3  1085601011
      12278.997       47.705       -302.6   6.873 1.55       8928.6  76.1  1085601061
      12330.746       47.909         -302   6.921 1.55       9010.8  76.2  1085601113
      12384.866       48.110       -303.5   6.962 1.60       9097.3  76.0  1085601167
      12440.236       48.310         -301   6.994 1.60       9185.9  75.9  1085601223
      12497.916       48.512       -302.4   7.026 1.60       9278.2  75.8  1085601280
      12554.406       48.716       -301.4   7.062 1.60       9368.3  75.8  1085601337
      12612.086       48.918       -302.4   7.090 1.60       9460.2  75.8  1085601394
      12672.146       49.121       -301.8   7.115 1.60       9556.3  75.5  1085601454
      12729.886       49.325       -301.9   7.144 1.65       9650.9  75.5  1085601512
      12788.756       49.527       -302.2   7.168 1.65       9747.7  75.5  1085601571
      12846.497       49.735       -301.9   7.204 1.65       9842.6  75.3  1085601629
      12905.366       49.940       -302.2   7.231 1.65       9939.4  75.3  1085601688
      12964.236       50.143       -302.3   7.254 1.65       10036.  75.1  1085601747
      13024.307       50.347       -302.3   7.280 1.65       10135.  75.1  1085601807
      13084.346       50.548         -302   7.302 1.65       10234.  75.1  1085601867
      13146.777       50.757       -302.3   7.321 1.65       10337.  74.8  1085601929
      13210.377       50.959       -302.6   7.330 1.65       10442.  74.7  1085601993
      13275.207       51.162       -302.7   7.340 1.65       10549.  74.6  1085602058
      13342.386       51.367       -302.6   7.347 1.65       10660.  74.3  1085602125
      13410.747       51.570       -301.9   7.347 1.70       10776.  74.3  1085602193
      13476.746       51.770       -301.7   7.340 1.65       10887.  74.2  1085602259
      13545.107       51.975       -302.4   7.343 1.70       11003.  74.1  1085602327
      13617.226       52.178       -301.5   7.327 1.70       11126.  73.9  1085602400
      13690.346       52.380       -301.2   7.315 1.70       11250.  73.8  1085602473
      13767.026       52.584       -303.4   7.290 1.70       11380.  73.8  1085602549
      13837.766       52.787       -302.7   7.279 1.70       11500.  73.7  1085602620
      13914.446       52.991       -302.6   7.254 1.70       11630.  73.4  1085602697
      13989.936       53.195       -301.8   7.234 1.75       11761.  73.4  1085602772
      14060.677       53.399       -301.8   7.226 1.75       11885.  73.4  1085602843
      14132.606       53.602       -301.7   7.216 1.75       12011.  73.1  1085602915
      14203.347       53.805         -301   7.208 1.75       12134.  73.2  1085602986
      14268.217       54.007       -301.9   7.215 1.80       12251.  73.0  1085603051
      14330.647       54.208         -302   7.232 1.80       12363.  72.8  1085603113
      14393.077       54.409       -301.6   7.248 1.85       12475.  72.9  1085603175
      14450.757       54.613       -300.9   7.281 1.85       12582.  72.8  1085603233
      14507.256       54.815       -302.9   7.317 1.90       12687.  72.6  1085603290
      14557.817       55.016       -300.2   7.368 1.90       12783.  72.7  1085603340
      14607.186       55.220       -301.9   7.427 1.95       12876.  72.4  1085603390
      14654.176       55.422       -301.6   7.487 1.95       12968.  72.4  1085603437
      14698.796       55.633       -301.5   7.563 1.95       13055.  72.2  1085603481
      14739.856       55.836       -301.6   7.640 2.00       13136.  72.3  1085603522
      14780.916       56.042       -300.7   7.720 2.00       13218.  72.2  1085603563
      14819.596       56.245       -301.9   7.805 2.00       13295.  72.2  1085603602
      14855.966       56.446       -301.8   7.895 2.00       13367.  71.9  1085603638
      14894.836       56.649       -301.5   7.978 2.00       13445.  72.1  1085603677
      14934.767       56.855       -302.3   8.060 2.00       13524.  71.8  1085603717
      14973.456       57.058         -302   8.147 2.00       13601.  71.7  1085603756
      15009.766       57.269         -302   8.246 2.00       13674.  71.8  1085603792
      15048.506       57.471       -303.3   8.337 2.00       13751.  71.7  1085603831
      15088.377       57.675       -303.4   8.415 2.00       13831.  71.7  1085603871
      15125.876       57.876       -303.4   8.504 2.00       13905.  71.4  1085603908
      15165.746       58.091       -303.1   8.599 2.00       13985.  71.4  1085603948
      15211.556       58.309       -303.4   8.680 2.00       14077.  71.2  1085603994
      15254.986       58.510       -302.9   8.747 2.00       14163.  71.2  1085604037
      15298.416       58.720         -303   8.828 2.00       14250.  71.2  1085604081
      15341.847       58.926       -302.7   8.907 2.00       14337.  71.1  1085604124
      15387.656       59.127         -302   8.964 2.00       14428.  71.0  1085604170
      15432.227       59.331       -302.5   9.041 2.00       14517.  70.8  1085604215
      15480.396       59.536       -302.6   9.096 2.00       14613.  70.9  1085604263
      15529.837       59.737       -302.9   9.151 2.00       14712.  70.7  1085604312
      15579.197       59.939       -302.7   9.205 2.00       14811.  70.6  1085604362
      15632.136       60.143       -302.5   9.248 2.00       14917.  70.6  1085604414
      15682.997       60.349       -302.2   9.309 2.00       15019.  70.4  1085604465
      15739.496       60.550       -302.2   9.338 2.00       15132.  70.4  1085604522
      15793.676       60.752       -301.6   9.373 2.00       15241.  70.2  1085604576
      15851.356       60.955       -301.9   9.404 2.00       15357.  70.2  1085604634
      15911.416       61.161       -301.9   9.428 2.00       15479.  70.0  1085604694
      15970.286       61.367       -302.3   9.459 2.00       15598.  70.1  1085604753
      16033.897       61.568       -302.3   9.469 2.05       15726.  69.8  1085604816
      16096.327       61.770       -302.6   9.480 2.00       15853.  69.7  1085604879
      16158.766       61.974       -301.1   9.503 2.05       15980.  69.5  1085604941
      16230.687       62.179       -302.3   9.498 2.05       16127.  69.5  1085605013
      16297.867       62.385       -302.7   9.495 2.05       16263.  69.4  1085605080
      16362.676       62.592       -302.6   9.518 2.05       16396.  69.3  1085605145
      16428.667       62.793       -302.6   9.512 2.05       16532.  69.1  1085605211
      16499.416       62.995       -302.6   9.498 2.05       16677.  69.0  1085605282
      16570.156       63.198       -302.6   9.502 2.10       16824.  68.9  1085605353
      16644.456       63.417       -302.6   9.496 2.10       16978.  68.5  1085605427
      16713.947       63.622       -302.6   9.490 2.10       17124.  68.8  1085605496
      16785.946       63.828       -302.6   9.481 2.10       17275.  68.3  1085605568
      16853.126       64.035         -303   9.482 2.10       17417.  68.2  1085605635
      16919.116       64.235       -302.7   9.487 2.10       17556.  67.9  1085605701
      16985.106       64.437       -302.9   9.499 2.15       17696.  67.9  1085605767
      17048.737       64.639         -303   9.492 2.10       17833.  67.9  1085605831
      17113.536       64.841         -303   9.516 2.20       17973.  67.8  1085605896
      17174.776       65.045       -302.9   9.538 2.20       18106.  67.6  1085605957
      17234.827       65.257       -303.3   9.561 2.15       18237.  67.5  1085606017
      17296.076       65.470       -302.9   9.597 2.20       18371.  67.2  1085606078
      17356.196       65.683       -303.3   9.630 2.20       18504.  67.3  1085606139
      17416.247       65.897       -303.3   9.656 2.20       18637.  67.2  1085606199
      17471.556       66.104       -303.5   9.702 2.25       18760.  67.2  1085606254
      17525.676       66.305       -303.8   9.739 2.25       18881.  66.9  1085606308
      17578.606       66.505       -302.1   9.781 2.25       19000.  66.9  1085606361
      17632.726       66.706       -303.5   9.818 2.25       19121.  66.8  1085606415
      17683.286       66.916         -303   9.880 2.30       19236.  66.8  1085606466
      17736.216       67.118       -303.4   9.918 2.25       19356.  66.5  1085606519
      17790.336       67.321       -303.3   9.964 2.30       19479.  66.3  1085606573
      17844.456       67.540       -303.4  10.011 2.30       19602.  66.3  1085606627
      17898.577       67.744       -303.7  10.059 2.30       19726.  66.3  1085606681
      17947.937       67.948       -304.1  10.110 2.30       19840.  66.0  1085606730
      17998.497       68.153         -304  10.167 2.30       19956.  66.0  1085606781
      18052.616       68.358       -304.8  10.207 2.30       20081.  66.0  1085606835
      18103.176       68.564       -303.7  10.267 2.35       20198.  65.9  1085606886
      18158.477       68.778       -303.9  10.309 2.30       20327.  65.6  1085606941
      18212.597       68.992       -303.5  10.356 2.35       20453.  65.6  1085606995
      18266.716       69.207       -303.2  10.422 2.35       20579.  65.5  1085607049
      18324.397       69.415       -303.1  10.450 2.35       20714.  65.3  1085607107
      18374.896       69.622       -303.3  10.513 2.40       20833.  65.1  1085607157
      18427.826       69.823       -303.4  10.541 2.35       20957.  65.2  1085607210
      18477.196       70.023       -303.4  10.597 2.35       21074.  65.0  1085607260
      18528.937       70.224       -303.2  10.645 2.40       21196.  64.6  1085607311
      18581.867       70.424       -303.3  10.684 2.35       21321.  64.6  1085607364
      18633.616       70.626       -302.6  10.733 2.35       21445.  64.6  1085607416
      18690.107       70.827         -303  10.763 2.40       21580.  64.5  1085607472
      18738.567       71.029       -302.7  10.829 2.40       21696.  64.5  1085607521
      18792.847       71.239       -302.6  10.868 2.40       21826.  64.3  1085607575
      18848.096       71.441       -303.5  10.908 2.40       21960.  64.0  1085607630
      18898.647       71.643       -302.9  10.953 2.40       22082.  64.1  1085607681
      18952.827       71.845       -303.3  10.998 2.45       22214.  63.9  1085607735
      19002.266       72.048         -302  11.049 2.45       22334.  63.8  1085607785
      19056.386       72.258       -302.3  11.087 2.40       22466.  63.7  1085607839
      19111.686       72.469         -303  11.137 2.45       22602.  63.6  1085607894
      19162.246       72.672       -302.8  11.182 2.45       22726.  63.5  1085607945
      19213.987       72.874       -302.8  11.231 2.45       22854.  63.5  1085607996
      19268.106       73.085       -302.3  11.294 2.50       22988.  63.4  1085608050
      19324.606       73.304       -302.5  11.336 2.45       23128.  63.2  1085608107
      19379.907       73.507       -302.8  11.381 2.50       23265.  63.0  1085608162
      19429.276       73.710       -302.7  11.434 2.50       23387.  63.1  1085608212
      19482.207       73.913       -302.4  11.462 2.50       23519.  62.9  1085608265
      19536.327       74.116       -301.8  11.518 2.50       23654.  62.7  1085608319
      19586.886       74.319       -301.4  11.578 2.55       23781.  62.6  1085608369
      19641.006       74.522       -301.5  11.614 2.55       23917.  62.6  1085608423
      19690.376       74.725       -301.2  11.676 2.55       24042.  62.4  1085608473
      19743.306       74.928       -301.6  11.704 2.55       24176.  62.4  1085608526
      19796.247       75.130       -301.6  11.752 2.55       24310.  62.2  1085608579
      19851.546       75.358       -301.9  11.811 2.55       24450.  62.1  1085608634
      19904.497       75.561         -302  11.867 2.60       24586.  61.8  1085608687
      19959.786       75.763       -302.2  11.898 2.60       24727.  61.8  1085608742
      20009.156       75.966       -302.2  11.951 2.60       24854.  61.7  1085608792
      20065.646       76.177       -300.9  11.995 2.60       24999.  61.5  1085608848
      20120.956       76.380       -301.9  12.017 2.55       25141.  61.4  1085608903
      20170.386       76.582       -302.6  12.087 2.60       25269.  61.3  1085608953
      20219.756       76.785       -302.5  12.132 2.60       25397.  61.2  1085609002
      20276.246       76.988       -302.5  12.161 2.60       25544.  61.0  1085609059
      20329.177       77.190       -302.2  12.203 2.60       25681.  60.8  1085609112
      20382.116       77.401       -302.6  12.259 2.60       25818.  60.9  1085609164
      20435.046       77.603       -302.2  12.303 2.60       25957.  60.7  1085609217
      20486.786       77.805       -302.2  12.353 2.65       26093.  60.6  1085609269
      20543.286       78.015         -302  12.394 2.65       26242.  60.5  1085609326
      20595.026       78.217       -302.3  12.436 2.60       26379.  60.3  1085609377
      20645.586       78.419       -302.5  12.496 2.65       26512.  60.3  1085609428
      20703.266       78.621       -302.7  12.505 2.60       26664.  60.2  1085609486
      20755.006       78.831       -302.9  12.570 2.65       26802.  60.0  1085609537
      20809.126       79.032       -302.6  12.611 2.65       26946.  59.7  1085609591
      20865.626       79.242       -302.7  12.654 2.70       27097.  59.8  1085609648
      20918.556       79.443         -303  12.696 2.70       27239.  59.6  1085609701
      20970.296       79.644       -302.5  12.739 2.70       27377.  59.5  1085609753
      21024.416       79.846       -302.4  12.778 2.70       27522.  59.4  1085609807
      21082.096       80.047         -303  12.807 2.70       27678.  59.1  1085609864
      21130.277       80.247         -303  12.864 2.70       27808.  59.1  1085609913
      21186.776       80.448       -302.6  12.893 2.70       27961.  59.0  1085609969
      21242.146       80.648       -303.3  12.934 2.75       28111.  58.6  1085610024
      21295.136       80.849       -303.1  12.963 2.70       28256.  57.5  1085610077
      21346.877       81.049       -302.9  13.031 2.75       28398.  56.5  1085610129
      21402.187       81.257         -303  13.055 2.75       28549.  56.2  1085610185
      21461.056       81.472       -303.3  13.102 2.75       28711.  56.0  1085610243
      21521.116       81.680       -303.1  13.135 2.80       28876.  55.8  1085610303
      21577.606       81.895       -303.3  13.168 2.75       29032.  55.3  1085610360
      21631.726       82.103       -302.9  13.214 2.75       29182.  54.8  1085610414
      21689.346       82.309       -302.7  13.259 2.80       29342.  54.9  1085610472
      21744.647       82.516       -302.8  13.296 2.80       29495.  53.8  1085610527
      21805.896       82.739       -303.5  13.321 2.75       29665.  53.8  1085610588
      21863.636       82.945       -303.3  13.361 2.80       29827.  53.7  1085610646
      21917.817       83.151       -303.1  13.405 2.80       29979.  53.4  1085610700
      21976.686       83.357       -303.4  13.444 2.85       30144.  53.3  1085610759
      22031.996       83.570       -303.5  13.474 2.80       30300.  53.2  1085610814
      22088.486       83.776       -303.7  13.528 2.85       30460.  53.1  1085610871
      22147.417       83.981       -303.5  13.539 2.80       30626.  52.9  1085610930
      22202.726       84.193       -302.8  13.591 2.85       30783.  52.8  1085610985
      22262.777       84.398       -303.1  13.626 2.85       30954.  52.7  1085611045
      22319.276       84.602       -303.3  13.660 2.90       31115.  52.3  1085611102
      22374.586       84.807       -303.7  13.685 2.80       31272.  52.0  1085611157
      22427.576       85.010       -303.1  13.733 2.85       31425.  51.9  1085611210
      22487.696       85.214       -304.9  13.751 2.85       31597.  51.6  1085611270
      22545.376       85.417       -303.7  13.786 2.85       31763.  51.7  1085611328
      22601.867       85.628       -304.1  13.823 2.85       31926.  51.6  1085611384
      22660.736       85.831       -303.5  13.870 2.95       32097.  51.2  1085611443
      22717.236       86.034       -303.1  13.880 2.85       32262.  51.3  1085611500
      22771.476       86.236       -303.4  13.927 2.90       32419.  51.1  1085611554
      22831.536       86.438       -303.8  13.956 2.95       32594.  50.9  1085611614
      22885.647       86.647       -302.5  14.000 2.90       32752.  50.7  1085611668
      22945.706       86.856         -303  14.033 2.95       32928.  50.7  1085611728
      23003.386       87.057       -302.8  14.043 2.90       33098.  50.3  1085611786
      23059.886       87.266         -303  14.093 2.95       33264.  50.2  1085611842
      23116.376       87.474       -303.1  14.131 2.90       33430.  50.3  1085611899
      23177.677       87.690       -302.8  14.159 2.95       33609.  50.0  1085611960
      23242.497       87.897         -302  14.167 2.90       33800.  49.7  1085612025
      23301.606       88.104         -304  14.204 2.95       33976.  49.7  1085612084
      23361.657       88.311       -303.6  14.234 3.00       34154.  49.5  1085612144
      23422.906       88.518       -303.8  14.263 3.00       34337.  48.9  1085612205
      23478.207       88.725       -303.1  14.301 3.00       34503.  49.0  1085612261
      23543.016       88.931       -303.4  14.315 3.00       34697.  48.8  1085612325
      23600.767       89.136       -303.6  14.342 3.00       34871.  48.5  1085612383
      23659.627       89.349       -303.4  14.381 3.00       35048.  48.4  1085612442
      23719.686       89.555       -303.4  14.399 3.00       35229.  48.2  1085612502
      23778.556       89.760       -303.6  14.434 3.05       35407.  48.0  1085612561
      23838.607       89.972       -303.7  14.462 3.00       35590.  47.6  1085612621
      23899.856       90.184       -303.5  14.494 3.05       35776.  47.5  1085612682
      23961.096       90.387       -303.6  14.520 3.10       35962.  47.5  1085612743
      24016.526       90.591       -303.7  14.563 3.10       36132.  47.5  1085612799
      24075.396       90.795       -303.5  14.591 3.10       36312.  47.2  1085612858
      24137.826       91.005       -303.6  14.598 3.05       36502.  46.8  1085612920
      24196.756       91.208       -303.5  14.631 3.10       36683.  46.6  1085612979
      24256.816       91.418       -303.7  14.650 3.05       36867.  46.3  1085613039
      24316.867       91.620         -304  14.686 3.10       37052.  46.3  1085613099
      24376.926       91.822       -303.6  14.700 3.10       37238.  45.8  1085613159
      24434.606       92.023       -303.7  14.727 3.10       37416.  45.6  1085613217
      24495.916       92.224       -303.5  14.734 3.05       37607.  45.3  1085613278
      24555.966       92.433       -303.5  14.772 3.10       37793.  45.5  1085613338
      24616.026       92.641       -303.7  14.805 3.15       37981.  45.2  1085613398
      24678.516       92.841       -304.2  14.827 3.15       38176.  45.0  1085613461
      24739.757       93.048       -304.4  14.841 3.15       38368.  44.8  1085613522
      24798.696       93.255       -303.8  14.869 3.15       38553.  44.6  1085613581
      24862.316       93.461       -303.6  14.886 3.15       38752.  44.4  1085613645
      24923.556       93.667         -304  14.914 3.20       38945.  44.3  1085613706
      24983.676       93.873       -304.1  14.957 3.25       39135.  43.9  1085613766
      25043.726       94.078       -304.5  14.943 3.15       39325.  43.8  1085613826
      25107.346       94.290       -304.2  14.962 3.15       39527.  43.6  1085613890
      25169.776       94.502       -304.1  14.991 3.15       39726.  43.4  1085613952
      25234.586       94.713       -304.4  15.012 3.15       39932.  42.7  1085614017
      25298.266       94.916       -304.2  15.016 3.15       40135.  42.6  1085614081
      25358.316       95.119       -304.4  15.065 3.25       40328.  42.4  1085614141
      25420.747       95.322       -304.8  15.069 3.20       40528.  42.1  1085614203
      25483.177       95.524       -304.6  15.073 3.20       40728.  42.0  1085614266
      25544.426       95.725       -304.8  15.097 3.20       40926.  41.4  1085614327
      25606.787       95.926       -303.4  15.114 3.20       41129.  41.5  1085614389
      25665.657       96.127       -305.2  15.123 3.20       41319.  41.2  1085614448
      25728.087       96.327       -304.9  15.167 3.30       41522.  40.9  1085614510
      25789.336       96.533       -304.4  15.174 3.25       41721.  40.6  1085614572
      25852.956       96.739       -304.8  15.198 3.30       41929.  40.4  1085614635
      25920.136       96.945       -305.3  15.191 3.25       42149.  40.1  1085614703
      25978.997       97.150       -304.4  15.222 3.30       42342.  40.0  1085614761
      26044.996       97.362       -304.5  15.245 3.35       42558.  39.5  1085614827
      26107.426       97.573       -304.4  15.259 3.30       42764.  39.0  1085614890
      26173.416       97.777       -305.3  15.264 3.35       42982.  39.1  1085614956
      26238.226       97.980       -304.2  15.270 3.30       43197.  38.6  1085615021
      26299.406       98.183       -304.9  15.303 3.35       43401.  38.3  1085615082
      26362.956       98.386       -304.8  15.310 3.35       43613.  38.0  1085615145
      26426.576       98.588         -305  15.317 3.35       43825.  37.5  1085615209
      26489.067       98.789         -305  15.328 3.35       44034.  37.1  1085615271
      26550.316       98.991       -305.4  15.365 3.45       44240.  37.0  1085615333
      26616.317       99.192         -305  15.353 3.35       44461.  36.5  1085615399
      26677.547       99.392       -304.9  15.374 3.40       44667.  36.4  1085615460
      26739.916       99.592         -305  15.390 3.40       44877.  36.1  1085615522
      26804.726       99.799       -305.7  15.409 3.45       45097.  36.0  1085615587
      26868.337       100.01       -305.2  15.418 3.45       45312.  35.4  1085615651
      26874.936       100.03       -306.2  15.418 3.30       45334.  35.2  1085615657
